time,accel_x_ms2,accel_y_ms2,accel_z_ms2,gyro_x_rads,gyro_y_rads,gyro_z_rads,mag_x_T,mag_y_T,mag_z_T,pressure_Pa
0.000000,0.464475,0.474052,-9.753978,0.001065,0.001065,0.002131,-0.000012,-0.000016,-0.000043,85532.160000
0.020000,0.459687,0.469264,-9.777920,0.000000,-0.001065,0.001065,-0.000012,-0.000015,-0.000044,85531.200000
0.040000,0.493206,0.469264,-9.801862,0.001065,-0.001065,0.001065,-0.000013,-0.000018,-0.000043,85527.680000
0.060000,0.478840,0.469264,-9.773131,0.000000,-0.001065,0.002131,-0.000011,-0.000018,-0.000044,85520.000000
0.080000,0.488417,0.469264,-9.806650,0.000000,-0.001065,0.001065,-0.000010,-0.000017,-0.000043,85530.720000
0.100000,0.464475,0.469264,-9.739612,0.000000,0.000000,0.001065,-0.000012,-0.000017,-0.000043,85520.320000
0.120000,0.478840,0.474052,-9.782708,0.000000,-0.002131,0.002131,-0.000011,-0.000017,-0.000044,85546.880000
0.140000,0.450110,0.464475,-9.797073,-0.001065,-0.002131,0.000000,-0.000011,-0.000018,-0.000043,85529.280000
0.160000,0.488417,0.474052,-9.801862,0.000000,-0.002131,0.002131,-0.000011,-0.000016,-0.000043,85514.400000
0.180000,0.464475,0.474052,-9.797073,0.001065,-0.002131,0.001065,-0.000011,-0.000017,-0.000043,85529.920000
0.200000,0.474052,0.464475,-9.797073,-0.001065,-0.001065,0.002131,-0.000010,-0.000018,-0.000044,85516.000000
0.220000,0.464475,0.488417,-9.787496,0.000000,-0.002131,0.002131,-0.000013,-0.000017,-0.000043,85515.360000
0.240000,0.464475,0.493206,-9.801862,0.001065,-0.001065,0.002131,-0.000013,-0.000017,-0.000045,85531.360000
0.260000,0.474052,0.459687,-9.787496,0.000000,-0.001065,0.002131,-0.000010,-0.000016,-0.000043,85539.520000
0.280000,0.454898,0.464475,-9.753978,-0.001065,0.000000,0.001065,-0.000012,-0.000016,-0.000043,85530.400000
0.300000,0.483629,0.483629,-9.801862,-0.002131,-0.002131,0.001065,-0.000011,-0.000016,-0.000044,85525.760000
0.320000,0.454898,0.478840,-9.811438,0.000000,-0.001065,0.003196,-0.000013,-0.000017,-0.000043,85530.400000
0.340000,0.464475,0.483629,-9.753978,0.000000,-0.002131,0.001065,-0.000011,-0.000018,-0.000045,85524.800000
0.360000,0.459687,0.469264,-9.797073,0.000000,0.000000,0.003196,-0.000011,-0.000017,-0.000044,85526.880000
0.380000,0.474052,0.488417,-9.811438,0.000000,0.000000,0.001065,-0.000013,-0.000018,-0.000044,85522.720000
0.400000,0.469264,0.474052,-9.792285,0.000000,-0.001065,0.002131,-0.000012,-0.000017,-0.000044,85527.520000
0.420000,0.454898,0.483629,-9.782708,-0.001065,0.000000,0.001065,-0.000011,-0.000017,-0.000044,85522.400000
0.440000,0.478840,0.474052,-9.792285,-0.001065,0.001065,0.003196,-0.000012,-0.000017,-0.000044,85530.080000
0.460000,0.464475,0.488417,-9.787496,-0.002131,0.000000,0.003196,-0.000011,-0.000017,-0.000043,85532.480000
0.480000,0.478840,0.474052,-9.787496,-0.001065,-0.001065,0.002131,-0.000012,-0.000018,-0.000044,85528.000000
0.500000,0.450110,0.497994,-9.763554,0.000000,0.002131,0.001065,-0.000010,-0.000016,-0.000044,85525.920000
0.520000,0.474052,0.469264,-9.792285,-0.001065,0.000000,0.003196,-0.000010,-0.000015,-0.000043,85528.800000
0.540000,0.478840,0.483629,-9.758766,-0.001065,-0.003196,0.002131,-0.000011,-0.000018,-0.000043,85522.240000
0.560000,0.464475,0.469264,-9.801862,0.002131,-0.001065,0.002131,-0.000012,-0.000017,-0.000044,85524.800000
0.580000,0.483629,0.469264,-6.871359,-0.002131,0.000000,0.004261,-0.000011,-0.000016,-0.000043,85521.280000
0.600000,0.483629,0.497994,-1.244985,0.001065,0.000000,0.002131,-0.000010,-0.000016,-0.000044,85524.960000
0.620000,0.435745,0.464475,4.429273,0.000000,-0.001065,0.003196,-0.000011,-0.000016,-0.000043,85522.880000
0.640000,0.474052,0.454898,10.132261,0.000000,-0.003196,0.006392,-0.000011,-0.000017,-0.000044,85517.920000
0.660000,0.464475,0.474052,15.777789,0.001065,-0.002131,0.006392,-0.000010,-0.000017,-0.000044,85522.720000
0.680000,0.440533,0.464475,21.499931,0.001065,-0.001065,0.007457,-0.000011,-0.000017,-0.000044,85529.920000
0.700000,0.488417,0.459687,27.155035,0.001065,0.000000,0.007457,-0.000012,-0.000017,-0.000044,85524.800000
0.720000,0.464475,0.478840,27.159824,0.000000,0.001065,0.007457,-0.000012,-0.000016,-0.000044,85522.080000
0.740000,0.488417,0.469264,27.116728,0.000000,-0.001065,0.009587,-0.000010,-0.000016,-0.000044,85526.240000
0.760000,0.440533,0.488417,27.116728,-0.001065,-0.002131,0.008522,-0.000011,-0.000019,-0.000043,85532.000000
0.780000,0.459687,0.483629,27.121516,-0.002131,0.001065,0.009587,-0.000010,-0.000017,-0.000043,85503.520000
0.800000,0.440533,0.478840,27.092786,0.001065,0.000000,0.009587,-0.000010,-0.000016,-0.000044,85533.120000
0.820000,0.464475,0.483629,27.059267,-0.001065,0.000000,0.009587,-0.000011,-0.000017,-0.000043,85535.040000
0.840000,0.454898,0.483629,27.064056,0.001065,-0.002131,0.007457,-0.000011,-0.000016,-0.000044,85517.600000
0.860000,0.459687,0.474052,27.044902,0.001065,0.000000,0.008522,-0.000011,-0.000016,-0.000044,85528.000000
0.880000,0.450110,0.507571,27.068844,0.001065,0.000000,0.009587,-0.000011,-0.000016,-0.000044,85516.320000
0.900000,0.478840,0.488417,27.049690,-0.001065,-0.003196,0.007457,-0.000012,-0.000016,-0.000043,85500.640000
0.920000,0.469264,0.483629,27.001806,0.000000,-0.001065,0.008522,-0.000009,-0.000017,-0.000043,85515.840000
0.940000,0.483629,0.488417,27.025748,-0.001065,0.001065,0.008522,-0.000010,-0.000017,-0.000044,85509.440000
0.960000,0.450110,0.493206,26.977864,-0.002131,-0.003196,0.008522,-0.000011,-0.000018,-0.000043,85500.960000
0.980000,0.469264,0.493206,27.006595,0.002131,-0.002131,0.009587,-0.000010,-0.000016,-0.000044,85507.840000
1.000000,0.469264,0.493206,26.958711,0.001065,-0.001065,0.009587,-0.000010,-0.000016,-0.000043,85493.600000
1.020000,0.478840,0.474052,26.982653,0.001065,-0.002131,0.006392,-0.000011,-0.000016,-0.000043,85496.320000
1.040000,0.478840,0.488417,26.939557,-0.002131,-0.002131,0.009587,-0.000011,-0.000018,-0.000043,85498.240000
1.060000,0.459687,0.464475,26.958711,-0.001065,0.000000,0.008522,-0.000012,-0.000017,-0.000044,85480.320000
1.080000,0.459687,0.474052,26.944345,0.001065,-0.003196,0.008522,-0.000011,-0.000017,-0.000043,85495.360000
1.100000,0.464475,0.469264,26.939557,0.000000,-0.001065,0.008522,-0.000010,-0.000019,-0.000043,85484.640000
1.120000,0.914585,0.890643,26.920403,0.001065,-0.001065,0.007457,-0.000011,-0.000017,-0.000044,85487.680000
1.140000,0.895431,0.876278,26.977864,0.000000,-0.001065,0.023436,-0.000010,-0.000016,-0.000043,85482.080000
1.160000,0.919373,0.852336,26.958711,-0.001065,0.002131,0.040480,-0.000012,-0.000016,-0.000043,85475.200000
1.180000,0.928950,0.881066,26.949134,0.002131,0.004261,0.056459,-0.000011,-0.000017,-0.000044,85461.120000
1.200000,0.914585,0.861913,26.982653,0.001065,0.005326,0.073503,-0.000011,-0.000016,-0.000044,85465.760000
1.220000,0.919373,0.852336,26.929980,0.002131,0.009587,0.087352,-0.000011,-0.000018,-0.000043,85455.040000
1.240000,0.924162,0.837971,27.006595,0.003196,0.012783,0.105461,-0.000011,-0.000017,-0.000043,85459.840000
1.260000,0.919373,0.823605,26.958711,0.001065,0.012783,0.123571,-0.000011,-0.000017,-0.000045,85457.120000
1.280000,0.924162,0.837971,26.987441,0.003196,0.018109,0.140615,-0.000011,-0.000016,-0.000044,85444.320000
1.300000,0.967257,0.833182,26.982653,0.003196,0.019175,0.159790,-0.000011,-0.000016,-0.000044,85428.160000
1.320000,0.957681,0.809240,27.025748,0.003196,0.022371,0.178964,-0.000010,-0.000017,-0.000044,85442.720000
1.340000,0.962469,0.809240,26.997018,0.003196,0.021305,0.198139,-0.000012,-0.000017,-0.000044,85421.920000
1.360000,0.981623,0.818817,27.020960,0.002131,0.027697,0.215183,-0.000011,-0.000017,-0.000044,85420.960000
1.380000,0.986411,0.790087,27.030537,0.003196,0.031958,0.237554,-0.000011,-0.000018,-0.000043,85422.560000
1.400000,1.000776,0.761356,27.035325,0.003196,0.033023,0.256729,-0.000010,-0.000018,-0.000043,85408.800000
1.420000,1.024718,0.785298,27.068844,0.003196,0.036219,0.276969,-0.000013,-0.000016,-0.000043,85403.840000
1.440000,1.072602,0.770933,27.083209,0.003196,0.041545,0.296144,-0.000011,-0.000017,-0.000044,85404.800000
1.460000,1.077391,0.742203,27.092786,0.004261,0.044741,0.316384,-0.000011,-0.000017,-0.000043,85404.320000
1.480000,1.086968,0.732626,27.107151,0.005326,0.045806,0.334493,-0.000008,-0.000017,-0.000044,85391.680000
1.500000,1.120486,0.746991,27.107151,0.004261,0.047937,0.354733,-0.000010,-0.000017,-0.000043,85371.040000
1.520000,1.134852,0.742203,27.107151,0.004261,0.050067,0.376038,-0.000011,-0.000018,-0.000044,85372.800000
1.540000,1.163582,0.713472,27.164612,0.005326,0.054328,0.395213,-0.000010,-0.000019,-0.000043,85364.960000
1.560000,1.230620,0.713472,27.164612,0.005326,0.054328,0.414388,-0.000010,-0.000018,-0.000043,85353.440000
1.580000,1.259350,0.694318,27.174189,0.003196,0.059655,0.434628,-0.000011,-0.000019,-0.000044,85352.800000
1.600000,1.278504,0.689530,27.212496,0.004261,0.061785,0.453803,-0.000010,-0.000017,-0.000043,85346.240000
1.620000,1.297657,0.684742,27.246015,0.005326,0.062851,0.474043,-0.000010,-0.000019,-0.000043,85346.880000
1.640000,1.340753,0.641646,27.231650,0.006392,0.066046,0.493217,-0.000009,-0.000019,-0.000043,85331.680000
1.660000,1.383849,0.665588,27.250803,0.006392,0.068177,0.512392,-0.000010,-0.000016,-0.000043,85327.040000
1.680000,1.441309,0.646434,27.269957,0.005326,0.068177,0.532632,-0.000010,-0.000019,-0.000044,85323.200000
1.700000,1.484405,0.636858,27.298687,0.005326,0.072438,0.551807,-0.000010,-0.000016,-0.000043,85316.320000
1.720000,1.527501,0.641646,27.265169,0.006392,0.070307,0.570982,-0.000010,-0.000017,-0.000044,85290.560000
1.740000,1.575385,0.622492,27.322629,0.005326,0.072438,0.591222,-0.000009,-0.000019,-0.000044,85302.080000
1.760000,1.623269,0.598550,27.313053,0.007457,0.072438,0.607201,-0.000008,-0.000019,-0.000044,85284.000000
1.780000,1.642422,0.598550,27.370513,0.007457,0.072438,0.626375,-0.000009,-0.000019,-0.000043,85275.520000
1.800000,1.704672,0.593762,27.341783,0.008522,0.072438,0.645550,-0.000008,-0.000019,-0.000044,85264.160000
1.820000,1.762132,0.598550,27.375302,0.005326,0.071373,0.662594,-0.000008,-0.000019,-0.000043,85250.400000
1.840000,1.786074,0.574608,27.399244,0.007457,0.071373,0.681769,-0.000008,-0.000019,-0.000043,85248.320000
1.860000,1.819593,0.545878,27.404032,0.005326,0.071373,0.698813,-0.000008,-0.000020,-0.000043,85236.640000
1.880000,1.910573,0.545878,27.432763,0.004261,0.071373,0.719053,-0.000008,-0.000019,-0.000043,85227.200000
1.900000,1.924938,0.517148,27.437551,0.007457,0.070307,0.735032,-0.000010,-0.000020,-0.000042,85213.440000
1.920000,2.006341,0.488417,27.413609,0.006392,0.066046,0.751011,-0.000007,-0.000019,-0.000044,85217.920000
1.940000,2.044648,0.469264,27.432763,0.005326,0.064981,0.771251,-0.000007,-0.000020,-0.000044,85191.360000
1.960000,2.063802,0.454898,27.485435,0.004261,0.062851,0.788296,-0.000008,-0.000020,-0.000043,85192.960000
1.980000,2.111686,0.430956,27.514165,0.004261,0.060720,0.803209,-0.000007,-0.000021,-0.000044,85181.760000
2.000000,2.149993,0.411803,27.504589,0.001065,0.057524,0.822384,-0.000007,-0.000020,-0.000043,85164.640000
2.020000,2.202666,0.397437,27.523742,0.002131,0.053263,0.840494,-0.000007,-0.000019,-0.000043,85156.000000
2.040000,2.250550,0.349553,27.518954,0.000000,0.051133,0.856473,-0.000006,-0.000020,-0.000042,85143.200000
2.060000,2.264915,0.301669,27.533319,0.000000,0.049002,0.872452,-0.000007,-0.000020,-0.000043,85130.400000
2.080000,2.341529,0.296881,27.533319,-0.001065,0.041545,0.889496,-0.000006,-0.000020,-0.000042,85132.160000
2.100000,2.375048,0.268151,27.557261,-0.004261,0.038350,0.905475,-0.000005,-0.000020,-0.000043,85112.960000
2.120000,2.389413,0.229843,27.552473,-0.004261,0.035154,0.923584,-0.000005,-0.000022,-0.000043,85099.360000
2.140000,2.418144,0.205901,27.547684,-0.006392,0.031958,0.938498,-0.000004,-0.000020,-0.000043,85092.640000
2.160000,2.442086,0.153229,27.547684,-0.008522,0.027697,0.956607,-0.000002,-0.000020,-0.000043,85084.480000
2.180000,2.437297,0.124498,27.595568,-0.011718,0.022371,0.972586,-0.000003,-0.000020,-0.000043,85074.560000
2.200000,2.451662,0.057461,27.609934,-0.011718,0.017044,0.989631,-0.000002,-0.000020,-0.000044,85046.080000
2.220000,2.466028,0.028730,27.566838,-0.015979,0.017044,1.005610,-0.000003,-0.000021,-0.000042,85053.280000
2.240000,2.461239,-0.009577,27.600357,-0.015979,0.013848,1.020523,-0.000003,-0.000020,-0.000043,85025.280000
2.260000,2.456451,-0.057461,27.595568,-0.018109,0.008522,1.035437,-0.000001,-0.000021,-0.000043,85015.040000
2.280000,2.446874,-0.100556,27.590780,-0.019175,0.002131,1.052481,-0.000002,-0.000023,-0.000043,85012.000000
2.300000,2.456451,-0.158017,27.585992,-0.020240,0.000000,1.067395,-0.000002,-0.000020,-0.000043,84995.040000
2.320000,2.418144,-0.186748,27.590780,-0.021305,-0.002131,1.083374,0.000000,-0.000022,-0.000044,84973.920000
2.340000,2.355894,-0.234632,27.581203,-0.022371,-0.004261,1.099353,0.000001,-0.000020,-0.000043,84975.360000
2.360000,2.346318,-0.282516,27.605145,-0.024501,-0.005326,1.116397,0.000000,-0.000021,-0.000043,84956.320000
2.380000,2.327164,-0.296881,27.576415,-0.025566,-0.011718,1.132376,0.000002,-0.000021,-0.000043,84940.800000
2.400000,2.269703,-0.359130,27.595568,-0.027697,-0.009587,1.145159,0.000001,-0.000022,-0.000043,84930.560000
2.420000,2.207454,-0.407014,27.595568,-0.024501,-0.012783,1.164334,0.000002,-0.000022,-0.000043,84917.280000
2.440000,2.173935,-0.411803,27.557261,-0.025566,-0.012783,1.177117,0.000004,-0.000022,-0.000043,84906.560000
2.460000,2.126051,-0.464475,27.552473,-0.024501,-0.013848,1.194161,0.000003,-0.000019,-0.000043,84904.960000
2.480000,2.073379,-0.512359,27.566838,-0.024501,-0.014914,1.206945,0.000002,-0.000020,-0.000043,84879.680000
2.500000,2.011129,-0.521936,27.514165,-0.022371,-0.012783,1.223989,0.000003,-0.000021,-0.000041,84867.520000
2.520000,1.948880,-0.560243,27.538107,-0.020240,-0.013848,1.237837,0.000004,-0.000022,-0.000044,84848.640000
2.540000,1.910573,-0.612916,27.557261,-0.019175,-0.013848,1.254882,0.000004,-0.000020,-0.000043,84844.640000
2.560000,1.819593,-0.641646,27.538107,-0.015979,-0.012783,1.268730,0.000007,-0.000019,-0.000044,84831.520000
2.580000,1.800440,-0.656011,27.538107,-0.013848,-0.010653,1.282578,0.000007,-0.000020,-0.000042,84815.680000
2.600000,1.747767,-0.689530,27.614722,-0.010653,-0.009587,1.300688,0.000005,-0.000019,-0.000043,84799.200000
2.620000,1.704672,-0.718260,27.562050,-0.006392,-0.005326,1.315602,0.000007,-0.000020,-0.000043,84775.840000
2.640000,1.661576,-0.785298,27.595568,-0.001065,-0.004261,1.329450,0.000008,-0.000019,-0.000042,84764.960000
2.660000,1.651999,-0.804452,27.571626,0.002131,-0.005326,1.347560,0.000008,-0.000022,-0.000043,84766.240000
2.680000,1.575385,-0.861913,27.585992,0.007457,0.000000,1.360343,0.000008,-0.000020,-0.000044,84736.160000
2.700000,1.551443,-0.890643,27.590780,0.011718,0.001065,1.375256,0.000010,-0.000019,-0.000044,84719.040000
2.720000,1.532289,-0.962469,27.653029,0.013848,0.002131,1.390170,0.000010,-0.000019,-0.000044,84704.480000
2.740000,1.498770,-1.005565,27.619510,0.020240,0.001065,1.406149,0.000010,-0.000017,-0.000044,84696.160000
2.760000,1.484405,-1.082179,27.614722,0.022371,0.002131,1.419997,0.000011,-0.000017,-0.000043,84676.160000
2.780000,1.460463,-1.149217,27.638664,0.027697,0.006392,1.433846,0.000013,-0.000016,-0.000043,84652.800000
2.800000,1.436521,-1.230620,27.653029,0.030893,0.006392,1.450890,0.000012,-0.000016,-0.000044,84641.600000
2.820000,1.436521,-1.292869,27.720067,0.037284,0.006392,1.465804,0.000013,-0.000016,-0.000043,84634.720000
2.840000,1.403002,-1.407791,27.724855,0.038350,0.007457,1.479652,0.000011,-0.000017,-0.000044,84599.520000
2.860000,1.403002,-1.484405,27.739220,0.040480,0.007457,1.494566,0.000014,-0.000016,-0.000044,84597.920000
2.880000,1.379060,-1.589750,27.758374,0.041545,0.008522,1.509480,0.000012,-0.000016,-0.000043,84576.000000
2.900000,1.359907,-1.685518,27.815835,0.044741,0.008522,1.524393,0.000014,-0.000015,-0.000042,84566.080000
2.920000,1.278504,-1.790863,27.834989,0.044741,0.008522,1.540372,0.000014,-0.000017,-0.000043,84541.440000
2.940000,1.273715,-1.886631,27.854142,0.043676,0.009587,1.555286,0.000015,-0.000016,-0.000043,84523.520000
2.960000,1.240196,-2.006341,27.839777,0.043676,0.007457,1.571265,0.000016,-0.000015,-0.000044,84518.240000
2.980000,1.182736,-2.106897,27.844565,0.041545,0.007457,1.584048,0.000016,-0.000015,-0.000043,84492.160000
3.000000,1.120486,-2.212242,27.849354,0.040480,0.007457,1.601092,0.000016,-0.000013,-0.000043,84472.960000
3.020000,1.086968,-2.288857,27.830200,0.037284,0.006392,1.613876,0.000016,-0.000014,-0.000043,84465.760000
3.040000,1.034295,-2.379836,27.844565,0.034088,0.005326,1.628789,0.000017,-0.000013,-0.000044,84436.320000
3.060000,0.928950,-2.461239,27.854142,0.033023,0.006392,1.643703,0.000017,-0.000011,-0.000043,84421.760000
3.080000,0.914585,-2.528277,27.854142,0.028762,0.006392,1.659682,0.000016,-0.000011,-0.000042,84400.640000
3.100000,0.823605,-2.576161,27.854142,0.024501,0.006392,1.674596,0.000019,-0.000010,-0.000043,84386.080000
3.120000,0.756568,-2.614468,27.892449,0.020240,0.005326,1.689509,0.000019,-0.000010,-0.000043,84368.320000
3.140000,0.675165,-2.643199,27.925968,0.017044,0.007457,1.704423,0.000020,-0.000009,-0.000044,84348.480000
3.160000,0.593762,-2.667141,27.949910,0.011718,0.009587,1.717206,0.000020,-0.000008,-0.000043,84345.440000
3.180000,0.497994,-2.667141,27.940333,0.009587,0.008522,1.732120,0.000019,-0.000008,-0.000044,84312.000000
3.200000,0.421379,-2.671929,27.969064,0.003196,0.006392,1.748099,0.000018,-0.000008,-0.000044,84298.080000
3.220000,0.363919,-2.662352,27.993006,0.000000,0.007457,1.761947,0.000019,-0.000008,-0.000044,84274.880000
3.240000,0.311246,-2.643199,27.969064,0.000000,0.008522,1.775796,0.000020,-0.000007,-0.000043,84270.080000
3.260000,0.234632,-2.604891,28.002583,-0.004261,0.010653,1.791775,0.000020,-0.000005,-0.000043,84236.480000
3.280000,0.177171,-2.557007,27.973852,-0.005326,0.009587,1.806688,0.000021,-0.000005,-0.000044,84224.480000
3.300000,0.114922,-2.533065,28.002583,-0.007457,0.010653,1.820537,0.000020,-0.000004,-0.000043,84224.000000
3.320000,0.057461,-2.466028,27.978641,-0.006392,0.009587,1.836516,0.000020,-0.000004,-0.000043,84179.520000
3.340000,0.004788,-2.451662,27.973852,-0.005326,0.006392,1.851430,0.000022,-0.000002,-0.000043,84172.800000
3.360000,-0.038307,-2.384625,27.988217,-0.006392,0.006392,1.865278,0.000022,-0.000001,-0.000042,84142.400000
3.380000,-0.110133,-2.375048,27.964275,-0.005326,0.004261,1.881257,0.000020,-0.000002,-0.000043,84127.840000
3.400000,-0.162806,-2.303222,27.983429,-0.001065,0.004261,1.895105,0.000021,0.000001,-0.000041,84094.880000
3.420000,-0.234632,-2.279280,27.978641,-0.002131,-0.002131,1.910019,0.000022,0.000001,-0.000043,84091.040000
3.440000,-0.277727,-2.250550,27.954699,0.002131,-0.003196,1.924933,0.000021,0.000000,-0.000044,84067.520000
3.460000,-0.349553,-2.245761,27.935545,0.004261,-0.004261,1.938781,0.000020,0.000002,-0.000043,84044.800000
3.480000,-0.450110,-2.221819,27.945122,0.005326,-0.008522,1.953695,0.000021,0.000002,-0.000044,84015.520000
3.500000,-0.541090,-2.173935,27.945122,0.007457,-0.011718,1.967543,0.000022,0.000004,-0.000042,84002.240000
3.520000,-0.651223,-2.164358,27.949910,0.009587,-0.013848,1.982457,0.000020,0.000004,-0.000044,83969.280000
3.540000,-0.766145,-2.140416,27.945122,0.010653,-0.019175,1.997371,0.000019,0.000004,-0.000043,83964.320000
3.560000,-0.895431,-2.106897,27.911603,0.013848,-0.020240,2.013350,0.000019,0.000005,-0.000043,83933.440000
3.580000,-1.039084,-2.073379,27.921180,0.013848,-0.021305,2.029329,0.000020,0.000008,-0.000043,83918.720000
3.600000,-1.168370,-2.039860,27.897238,0.013848,-0.024501,2.043177,0.000020,0.000007,-0.000041,83881.920000
3.620000,-1.273715,-1.982399,27.863719,0.014914,-0.030893,2.055960,0.000020,0.000011,-0.000043,83871.520000
3.640000,-1.407791,-1.948880,27.887661,0.013848,-0.026632,2.071939,0.000019,0.000011,-0.000044,83848.000000
3.660000,-1.570596,-1.877054,27.873296,0.014914,-0.028762,2.085788,0.000017,0.000009,-0.000043,83820.000000
3.680000,-1.699883,-1.790863,27.892449,0.012783,-0.026632,2.102832,0.000019,0.000011,-0.000043,83813.280000
3.700000,-1.829170,-1.728614,27.887661,0.012783,-0.027697,2.116680,0.000018,0.000010,-0.000044,83783.680000
3.720000,-1.953669,-1.656788,27.834989,0.011718,-0.024501,2.128398,0.000016,0.000012,-0.000044,83759.520000
3.740000,-2.059013,-1.570596,27.854142,0.010653,-0.021305,2.144377,0.000017,0.000014,-0.000043,83736.320000
3.760000,-2.135628,-1.474828,27.854142,0.010653,-0.021305,2.158226,0.000018,0.000015,-0.000044,83715.200000
3.780000,-2.240973,-1.383849,27.806258,0.010653,-0.018109,2.173139,0.000015,0.000015,-0.000043,83696.800000
3.800000,-2.303222,-1.307234,27.801470,0.009587,-0.017044,2.189118,0.000016,0.000016,-0.000043,83668.800000
3.820000,-2.370260,-1.201889,27.758374,0.008522,-0.013848,2.202967,0.000014,0.000016,-0.000043,83641.600000
3.840000,-2.408567,-1.110910,27.825412,0.009587,-0.011718,2.216815,0.000014,0.000017,-0.000043,83625.280000
3.860000,-2.432509,-1.039084,27.787104,0.006392,-0.009587,2.232794,0.000013,0.000016,-0.000043,83605.760000
3.880000,-2.504335,-0.933739,27.777528,0.007457,-0.007457,2.247708,0.000012,0.000019,-0.000043,83575.040000
3.900000,-2.547431,-0.861913,27.724855,0.008522,-0.004261,2.260491,0.000010,0.000017,-0.000044,83557.920000
3.920000,-2.523489,-0.780510,27.729644,0.006392,-0.003196,2.275405,0.000012,0.000018,-0.000042,83535.680000
3.940000,-2.533065,-0.703895,27.681760,0.005326,0.000000,2.290319,0.000008,0.000019,-0.000044,83500.640000
3.960000,-2.552219,-0.646434,27.657818,0.006392,0.000000,2.304167,0.000010,0.000019,-0.000043,83487.040000
3.980000,-2.585738,-0.545878,27.619510,0.004261,0.000000,2.318015,0.000008,0.000019,-0.000043,83445.760000
4.000000,-2.576161,-0.464475,27.600357,0.004261,-0.004261,2.333994,0.000008,0.000020,-0.000044,83426.400000
4.020000,-2.619257,-0.383072,27.547684,0.003196,-0.003196,2.346778,0.000007,0.000022,-0.000043,83400.160000
4.040000,-2.614468,-0.268151,27.514165,0.001065,-0.004261,2.362757,0.000005,0.000020,-0.000043,83374.400000
4.060000,-2.600103,-0.158017,27.480647,-0.002131,-0.006392,2.375540,0.000004,0.000019,-0.000043,83360.960000
4.080000,-2.638410,-0.033519,27.404032,-0.002131,-0.008522,2.391519,0.000003,0.000020,-0.000042,83325.440000
4.100000,-2.614468,0.081403,27.404032,-0.005326,-0.008522,2.406432,0.000002,0.000021,-0.000042,83306.560000
4.120000,-2.604891,0.225055,27.370513,-0.003196,-0.011718,2.419216,0.000002,0.000020,-0.000043,83275.040000
4.140000,-2.585738,0.349553,27.336995,-0.008522,-0.013848,2.433064,-0.000001,0.000020,-0.000044,83254.080000
4.160000,-2.561796,0.507571,27.284322,-0.009587,-0.013848,2.447978,-0.000001,0.000021,-0.000042,83233.120000
4.180000,-2.537854,0.636858,27.284322,-0.010653,-0.015979,2.462891,-0.000001,0.000022,-0.000043,83200.320000
4.200000,-2.480393,0.804452,27.231650,-0.011718,-0.015979,2.476740,-0.000004,0.000022,-0.000043,83187.680000
4.220000,-2.451662,0.943315,27.212496,-0.014914,-0.015979,2.490588,-0.000003,0.000019,-0.000044,83146.560000
4.240000,-2.365471,1.086968,27.188554,-0.015979,-0.018109,2.504437,-0.000005,0.000019,-0.000043,83129.920000
4.260000,-2.308010,1.216254,27.073632,-0.013848,-0.015979,2.519350,-0.000007,0.000022,-0.000043,83095.680000
4.280000,-2.245761,1.350330,27.049690,-0.014914,-0.014914,2.534264,-0.000007,0.000019,-0.000043,83080.800000
4.300000,-2.140416,1.489193,27.001806,-0.013848,-0.014914,2.548113,-0.000007,0.000019,-0.000043,83045.760000
4.320000,-2.087744,1.565808,26.925192,-0.012783,-0.014914,2.563026,-0.000009,0.000018,-0.000043,83017.120000
4.340000,-2.001553,1.709460,26.858154,-0.011718,-0.011718,2.576875,-0.000010,0.000020,-0.000042,82999.040000
4.360000,-1.900996,1.824382,26.815059,-0.009587,-0.011718,2.592854,-0.000013,0.000019,-0.000043,82968.960000
4.380000,-1.814805,1.905785,26.762386,-0.010653,-0.010653,2.603506,-0.000012,0.000019,-0.000042,82934.560000
4.400000,-1.742979,2.001553,26.738444,-0.007457,-0.009587,2.617355,-0.000013,0.000016,-0.000043,82916.480000
4.420000,-1.632846,2.102109,26.623522,-0.005326,-0.009587,2.634399,-0.000014,0.000018,-0.000043,82874.720000
4.440000,-1.527501,2.173935,26.594792,-0.004261,-0.008522,2.645052,-0.000014,0.000016,-0.000043,82851.360000
4.460000,-1.417367,2.250550,26.522966,-0.004261,-0.006392,2.662096,-0.000015,0.000014,-0.000044,82828.320000
4.480000,-1.345541,2.346318,156.906400,-0.001065,-0.022371,2.787797,-0.000014,0.000015,-0.000044,82800.000000
4.500000,-1.225831,2.413355,26.427198,-0.005326,-0.007457,2.688727,-0.000017,0.000013,-0.000044,82761.440000
4.520000,-1.063026,2.451662,26.398468,-0.004261,-0.004261,2.701511,-0.000017,0.000014,-0.000044,82741.760000
4.540000,-0.943315,2.542642,26.345795,-0.002131,-0.003196,2.716424,-0.000017,0.000011,-0.000041,82708.000000
4.560000,-0.794875,2.585738,26.283546,-0.004261,-0.005326,2.730273,-0.000019,0.000008,-0.000042,82680.000000
4.580000,-0.646434,2.624045,26.293123,-0.007457,-0.003196,2.743056,-0.000020,0.000009,-0.000044,82655.200000
4.600000,-0.507571,2.662352,26.273969,-0.006392,-0.004261,2.759035,-0.000021,0.000008,-0.000044,82635.840000
4.620000,-0.383072,2.681506,26.187778,-0.009587,-0.001065,2.772883,-0.000022,0.000007,-0.000043,82589.600000
4.640000,-0.210690,2.700659,26.178201,-0.009587,0.002131,2.783536,-0.000020,0.000005,-0.000042,82567.520000
4.660000,-0.062249,2.705448,26.182989,-0.012783,0.003196,2.801645,-0.000020,0.000006,-0.000044,82547.680000
4.680000,0.095768,2.695871,26.139894,-0.011718,0.003196,2.813363,-0.000021,0.000004,-0.000043,82513.120000
4.700000,0.244209,2.681506,26.096798,-0.012783,0.005326,2.827212,-0.000021,0.000002,-0.000043,82494.880000
4.720000,0.416591,2.695871,26.111163,-0.012783,0.006392,2.841060,-0.000023,0.000001,-0.000043,82441.920000
4.740000,0.569820,2.662352,26.034549,-0.013848,0.005326,2.854909,-0.000023,-0.000001,-0.000043,82424.960000
4.760000,0.703895,2.643199,26.015395,-0.012783,0.006392,2.867692,-0.000022,-0.000001,-0.000043,82384.000000
4.780000,0.861913,2.585738,26.010607,-0.012783,0.007457,2.883671,-0.000021,-0.000001,-0.000043,82354.080000
4.800000,0.995988,2.552219,25.986665,-0.009587,0.006392,2.896454,-0.000022,-0.000005,-0.000043,82328.320000
4.820000,1.144428,2.494758,25.991453,-0.010653,0.005326,2.911368,-0.000020,-0.000005,-0.000043,82293.760000
4.840000,1.254562,2.437297,25.948358,-0.009587,0.006392,2.923086,-0.000021,-0.000006,-0.000043,82269.120000
4.860000,1.431733,2.360683,25.938781,-0.009587,0.005326,2.936934,-0.000022,-0.000007,-0.000043,82234.400000
4.880000,1.537077,2.284068,25.871743,-0.008522,0.006392,2.950782,-0.000019,-0.000008,-0.000042,82208.480000
4.900000,1.709460,2.183512,25.852590,-0.007457,0.003196,2.963566,-0.000020,-0.000010,-0.000043,82178.560000
4.920000,1.824382,2.078167,25.819071,-0.004261,0.004261,2.978479,-0.000018,-0.000009,-0.000042,82143.840000
4.940000,1.953669,1.953669,25.775975,-0.005326,0.004261,2.992328,-0.000019,-0.000012,-0.000042,82119.680000
4.960000,2.063802,1.805228,25.728091,-0.004261,0.002131,3.005111,-0.000017,-0.000013,-0.000043,82094.880000
4.980000,2.169147,1.690306,25.704149,-0.005326,0.003196,3.018959,-0.000016,-0.000014,-0.000042,82060.960000
5.000000,2.274492,1.541866,25.641900,-0.003196,0.004261,3.031743,-0.000013,-0.000014,-0.000044,82012.640000
5.020000,2.346318,1.393425,25.589227,-0.003196,0.005326,3.044526,-0.000014,-0.000016,-0.000044,81992.320000
5.040000,2.451662,1.221043,25.526978,-0.002131,0.004261,3.060505,-0.000014,-0.000015,-0.000042,81956.960000
5.060000,2.513912,1.072602,25.503036,-0.001065,0.006392,3.074353,-0.000012,-0.000017,-0.000043,81932.640000
5.080000,2.590526,0.885855,25.455152,-0.002131,0.005326,3.086071,-0.000013,-0.000017,-0.000042,81896.320000
5.100000,2.624045,0.756568,25.402480,0.002131,0.008522,3.099920,-0.000010,-0.000017,-0.000043,81863.200000
5.120000,2.662352,0.579397,25.340230,0.001065,0.006392,3.113768,-0.000010,-0.000021,-0.000043,81824.640000
5.140000,2.695871,0.426168,25.345019,0.002131,0.010653,3.128682,-0.000006,-0.000020,-0.000043,81802.880000
5.160000,2.767697,0.239420,25.287558,0.001065,0.008522,3.140400,-0.000008,-0.000020,-0.000042,81750.720000
5.180000,2.796428,0.067038,25.234885,0.004261,0.008522,3.155313,-0.000007,-0.000022,-0.000043,81725.920000
5.200000,2.806004,-0.090980,25.201367,0.005326,0.010653,3.168096,-0.000004,-0.000022,-0.000042,81689.280000
5.220000,2.796428,-0.258574,25.143906,0.003196,0.010653,3.180880,-0.000002,-0.000021,-0.000041,81664.000000
5.240000,2.844312,-0.445322,25.076868,0.007457,0.009587,3.195793,-0.000002,-0.000020,-0.000042,81624.000000
5.260000,2.782062,-0.627281,25.072080,0.005326,0.009587,3.207511,0.000000,-0.000023,-0.000043,81601.760000
5.280000,2.748544,-0.823605,24.966735,0.006392,0.007457,3.222425,0.000000,-0.000022,-0.000043,81571.680000
5.300000,2.710236,-1.005565,24.966735,0.006392,0.006392,3.234143,0.000002,-0.000021,-0.000043,81528.800000
5.320000,2.643199,-1.158794,24.890120,0.007457,0.006392,3.247991,0.000004,-0.000020,-0.000043,81493.920000
5.340000,2.557007,-1.345541,24.885332,0.003196,0.006392,3.260774,0.000006,-0.000020,-0.000041,81471.200000
5.360000,2.480393,-1.498770,24.784776,0.006392,0.006392,3.272492,0.000007,-0.000021,-0.000042,81436.320000
5.380000,2.346318,-1.642422,24.732103,0.004261,0.005326,3.287406,0.000008,-0.000019,-0.000044,81389.760000
5.400000,2.226608,-1.786074,24.660277,0.005326,0.005326,3.299124,0.000009,-0.000018,-0.000043,81353.120000
5.420000,2.106897,-1.920150,24.626758,0.006392,0.002131,3.312972,0.000011,-0.000021,-0.000042,81326.560000
5.440000,1.948880,-2.035071,24.569297,0.006392,0.004261,3.326821,0.000012,-0.000017,-0.000043,81282.400000
5.460000,1.814805,-2.159570,24.507048,0.007457,0.002131,3.338539,0.000014,-0.000016,-0.000043,81255.040000
5.480000,1.675941,-2.255338,24.449587,0.008522,0.001065,3.354518,0.000014,-0.000015,-0.000044,81217.760000
5.500000,1.489193,-2.384625,24.377761,0.010653,0.000000,3.367301,0.000016,-0.000016,-0.000044,81192.800000
5.520000,1.316811,-2.475605,24.272416,0.008522,-0.001065,3.375823,0.000017,-0.000013,-0.000043,81136.320000
5.540000,1.163582,-2.585738,24.229321,0.011718,-0.003196,3.392867,0.000017,-0.000013,-0.000043,81104.320000
5.560000,0.981623,-2.652775,24.181437,0.010653,0.000000,3.404585,0.000017,-0.000012,-0.000043,81071.680000
5.580000,0.814029,-2.729390,24.100034,0.011718,0.000000,3.417368,0.000017,-0.000013,-0.000043,81042.880000
5.600000,0.593762,-2.806004,24.037785,0.011718,-0.004261,3.431217,0.000020,-0.000010,-0.000043,81000.800000
5.620000,0.402226,-2.887407,23.970747,0.011718,-0.005326,3.444000,0.000020,-0.000008,-0.000044,80967.360000
5.640000,0.186748,-2.887407,23.879767,0.009587,-0.003196,3.456783,0.000019,-0.000006,-0.000043,80936.000000
5.660000,-0.004788,-2.920926,23.812730,0.009587,-0.003196,3.470632,0.000023,-0.000005,-0.000043,80886.400000
5.680000,-0.201113,-2.959233,23.688231,0.009587,-0.007457,3.484480,0.000022,-0.000005,-0.000042,80863.360000
5.700000,-0.392649,-2.911349,23.597252,0.009587,-0.004261,3.495133,0.000020,-0.000002,-0.000043,80819.840000
5.720000,-0.636858,-2.901772,23.525426,0.009587,-0.007457,3.506851,0.000022,0.000000,-0.000041,80792.640000
5.740000,-0.828394,-2.820370,23.362620,0.007457,-0.005326,3.521764,0.000020,0.000001,-0.000042,80744.480000
5.760000,-1.015142,-2.806004,23.357831,0.007457,-0.008522,3.532417,0.000022,0.000002,-0.000042,80710.240000
5.780000,-1.201889,-2.710236,23.252487,0.006392,-0.004261,3.548396,0.000019,0.000005,-0.000041,80682.720000
5.800000,-1.359907,-2.609680,23.209391,0.005326,-0.007457,3.560114,0.000022,0.000005,-0.000041,80628.800000
5.820000,-1.561019,-2.504335,23.118411,0.005326,-0.007457,3.572897,0.000020,0.000005,-0.000043,80604.800000
5.840000,-1.704672,-2.398990,23.089681,0.007457,-0.010653,3.585680,0.000020,0.000008,-0.000043,80566.880000
5.860000,-1.872266,-2.255338,23.008278,0.005326,-0.007457,3.596333,0.000019,0.000010,-0.000044,80524.160000
5.880000,-2.025495,-2.126051,22.902933,0.004261,-0.010653,3.609116,0.000019,0.000009,-0.000042,80489.760000
5.900000,-2.169147,-1.977611,22.850261,0.005326,-0.008522,3.620834,0.000017,0.000012,-0.000043,80450.720000
5.920000,-2.308010,-1.833958,22.778435,0.003196,-0.011718,3.634682,0.000017,0.000014,-0.000043,80404.320000
5.940000,-2.451662,-1.642422,22.673090,0.002131,-0.011718,3.645335,0.000016,0.000014,-0.000043,80369.600000
5.960000,-2.552219,-1.450886,22.591687,0.002131,-0.011718,3.659183,0.000015,0.000015,-0.000043,80345.440000
5.980000,-2.695871,-1.249773,22.553380,0.002131,-0.011718,3.671967,0.000013,0.000017,-0.000043,80294.080000
6.000000,-2.791639,-1.063026,22.457612,0.002131,-0.010653,3.682619,0.000014,0.000018,-0.000043,80254.720000
6.020000,-2.849100,-0.847547,22.357055,0.001065,-0.013848,3.696468,0.000011,0.000019,-0.000042,80223.200000
6.040000,-2.916138,-0.627281,22.270864,0.000000,-0.012783,3.708186,0.000011,0.000019,-0.000044,80183.680000
6.060000,-2.978387,-0.421379,22.151154,0.001065,-0.011718,3.719903,0.000010,0.000017,-0.000044,80150.240000
6.080000,-2.992752,-0.210690,22.064963,-0.002131,-0.012783,3.732687,0.000008,0.000020,-0.000043,80106.240000
6.100000,-2.997540,0.028730,22.012290,0.000000,-0.011718,3.743339,0.000004,0.000022,-0.000043,80071.840000
6.120000,-2.987964,0.239420,21.883003,-0.001065,-0.011718,3.757188,0.000004,0.000022,-0.000041,80033.440000
6.140000,-2.978387,0.445322,21.753716,-0.003196,-0.010653,3.768906,0.000000,0.000020,-0.000043,79995.040000
6.160000,-2.987964,0.656011,21.701044,-0.003196,-0.011718,3.780623,-0.000001,0.000020,-0.000043,79954.720000
6.180000,-2.964022,0.861913,21.552603,-0.005326,-0.012783,3.792341,-0.000001,0.000022,-0.000043,79923.360000
6.200000,-2.887407,1.072602,21.475989,-0.007457,-0.007457,3.806190,-0.000002,0.000022,-0.000043,79882.400000
6.220000,-2.825158,1.321599,21.322760,-0.011718,-0.006392,3.815777,-0.000005,0.000023,-0.000043,79839.520000
6.240000,-2.729390,1.546654,21.217415,-0.014914,-0.006392,3.828560,-0.000005,0.000023,-0.000043,79807.680000
6.260000,-2.542642,1.714248,21.040244,-0.015979,-0.003196,3.838148,-0.000007,0.000020,-0.000044,79765.280000
6.280000,-2.375048,1.910573,20.930111,-0.018109,-0.002131,3.851996,-0.000008,0.000018,-0.000044,79737.280000
6.300000,-2.217031,2.082955,20.796036,-0.020240,-0.001065,3.866910,-0.000010,0.000019,-0.000041,79690.240000
6.320000,-1.987187,2.236184,20.752940,-0.019175,0.001065,3.877563,-0.000014,0.000019,-0.000043,79669.920000
6.340000,-1.838747,2.398990,20.671537,-0.019175,0.001065,3.885019,-0.000014,0.000017,-0.000042,79616.000000
6.360000,-1.618480,2.513912,20.614076,-0.018109,0.002131,3.897803,-0.000016,0.000016,-0.000042,79587.840000
6.380000,-1.431733,2.652775,20.570981,-0.014914,0.004261,3.910586,-0.000016,0.000017,-0.000043,79555.680000
6.400000,-1.211466,2.762909,20.475213,-0.015979,0.002131,3.922304,-0.000016,0.000016,-0.000044,79515.040000
6.420000,-0.972046,2.853888,20.460847,-0.012783,0.003196,3.934022,-0.000017,0.000013,-0.000042,79479.840000
6.440000,-0.751779,2.935291,20.393810,-0.010653,0.002131,3.944674,-0.000019,0.000011,-0.000043,79427.840000
6.460000,-0.502782,2.997540,20.288465,-0.009587,0.004261,3.956392,-0.000020,0.000010,-0.000043,79405.600000
6.480000,-0.277727,3.050213,20.231004,-0.009587,0.002131,3.968110,-0.000020,0.000010,-0.000044,79353.440000
6.500000,-0.043096,3.045425,20.163966,-0.009587,0.003196,3.979828,-0.000023,0.000007,-0.000043,79319.200000
6.520000,0.258574,3.035848,20.092140,-0.007457,0.003196,3.991546,-0.000023,0.000006,-0.000042,79294.400000
6.540000,0.450110,3.002329,20.034679,-0.009587,0.005326,4.002198,-0.000021,0.000004,-0.000043,79242.240000
6.560000,0.718260,2.935291,19.943700,-0.006392,0.008522,4.014982,-0.000022,0.000003,-0.000043,79202.560000
6.580000,0.962469,2.877830,19.905393,-0.007457,0.011718,4.025634,-0.000021,-0.000002,-0.000043,79165.600000
6.600000,1.192312,2.782062,19.814413,-0.005326,0.010653,4.037352,-0.000022,-0.000004,-0.000043,79141.600000
6.620000,1.422156,2.715025,19.670761,-0.004261,0.013848,4.049070,-0.000022,-0.000004,-0.000043,79091.680000
6.640000,1.613692,2.576161,19.503167,-0.003196,0.013848,4.057592,-0.000021,-0.000007,-0.000041,79056.160000
6.660000,1.862689,2.466028,19.426552,0.000000,0.017044,4.070375,-0.000020,-0.000008,-0.000043,79015.840000
6.680000,2.078167,2.312799,19.321207,0.000000,0.015979,4.079963,-0.000020,-0.000009,-0.000043,78974.560000
6.700000,2.269703,2.149993,19.225439,0.001065,0.014914,4.093811,-0.000019,-0.000012,-0.000043,78937.120000
6.720000,2.432509,1.972822,19.096152,0.002131,0.014914,4.103399,-0.000019,-0.000012,-0.000043,78907.840000
6.740000,2.590526,1.752556,18.986019,0.002131,0.012783,4.115117,-0.000017,-0.000014,-0.000043,78856.800000
6.760000,2.734178,1.537077,18.875886,0.002131,0.010653,4.124704,-0.000016,-0.000012,-0.000041,78821.600000
6.780000,2.868254,1.292869,18.775329,0.003196,0.009587,4.137487,-0.000015,-0.000017,-0.000043,78777.920000
6.800000,2.973598,1.029507,18.693927,0.004261,0.010653,4.146009,-0.000012,-0.000017,-0.000043,78729.280000
6.820000,3.021482,0.790087,18.531121,0.004261,0.011718,4.156662,-0.000012,-0.000017,-0.000043,78691.840000
6.840000,3.021482,0.512359,18.440141,0.005326,0.009587,4.169445,-0.000010,-0.000018,-0.000044,78667.680000
6.860000,3.050213,0.268151,18.296489,0.006392,0.009587,4.181163,-0.000009,-0.000020,-0.000041,78622.400000
6.880000,3.078943,0.004788,18.210298,0.007457,0.006392,4.189685,-0.000007,-0.000023,-0.000041,78571.360000
6.900000,3.055001,-0.234632,18.133683,0.009587,0.007457,4.202468,-0.000005,-0.000021,-0.000044,78547.680000
6.920000,3.007117,-0.488417,18.023550,0.011718,0.006392,4.214186,-0.000002,-0.000025,-0.000043,78505.760000
6.940000,2.987964,-0.751779,17.970878,0.013848,0.007457,4.221643,-0.000002,-0.000022,-0.000044,78459.040000
6.960000,2.920926,-1.019930,17.812860,0.014914,0.005326,4.231230,0.000001,-0.000022,-0.000042,78411.520000
6.980000,2.873042,-1.292869,17.750611,0.015979,0.003196,4.245079,0.000003,-0.000021,-0.000042,78370.080000
7.000000,2.719813,-1.565808,17.659631,0.013848,0.001065,4.253601,0.000004,-0.000022,-0.000043,78340.640000
7.020000,2.600103,-1.805228,17.496826,0.015979,-0.001065,4.264254,0.000007,-0.000022,-0.000043,78290.240000
7.040000,2.413355,-2.073379,17.396269,0.017044,0.002131,4.272776,0.000008,-0.000020,-0.000043,78257.600000
7.060000,2.260126,-2.264915,17.257406,0.013848,-0.001065,4.285559,0.000010,-0.000020,-0.000043,78204.480000
7.080000,2.035071,-2.451662,17.118542,0.017044,-0.003196,4.297277,0.000011,-0.000019,-0.000044,78168.640000
7.100000,1.833958,-2.624045,16.979678,0.013848,-0.005326,4.305799,0.000012,-0.000018,-0.000041,78131.520000
7.120000,1.604115,-2.777274,16.773777,0.013848,-0.004261,4.315386,0.000015,-0.000016,-0.000044,78089.600000
7.140000,1.331176,-2.887407,16.697162,0.012783,-0.004261,4.327104,0.000014,-0.000015,-0.000043,78050.880000
7.160000,1.120486,-2.992752,16.491261,0.013848,-0.006392,4.336692,0.000016,-0.000015,-0.000042,78004.640000
7.180000,0.852336,-3.083732,16.318879,0.013848,-0.005326,4.347344,0.000019,-0.000010,-0.000042,77971.520000
7.200000,0.603339,-3.112462,16.146496,0.011718,-0.007457,4.357997,0.000019,-0.000012,-0.000044,77935.520000
7.220000,0.359130,-3.174711,15.988479,0.011718,-0.008522,4.365454,0.000020,-0.000010,-0.000043,77897.600000
7.240000,0.086191,-3.208230,15.820885,0.009587,-0.014914,4.376106,0.000022,-0.000007,-0.000043,77848.160000
7.260000,-0.239420,-3.203442,15.677232,0.011718,-0.012783,4.386759,0.000020,-0.000005,-0.000043,77802.720000
7.280000,-0.512359,-3.155558,15.500062,0.008522,-0.014914,4.397412,0.000023,-0.000004,-0.000041,77775.680000
7.300000,-0.809240,-3.131616,15.164873,0.008522,-0.014914,4.405934,0.000022,0.000000,-0.000041,77716.160000
7.320000,-1.106121,-3.045425,14.815320,0.006392,-0.013848,4.414456,0.000023,0.000000,-0.000044,77680.800000
7.340000,-1.398214,-2.930503,14.465766,0.006392,-0.017044,4.425108,0.000022,0.000004,-0.000043,77643.840000
7.360000,-1.671153,-2.786851,14.140155,0.004261,-0.014914,4.434696,0.000022,0.000004,-0.000043,77596.480000
7.380000,-1.900996,-2.619257,13.804967,0.003196,-0.015979,4.442153,0.000021,0.000005,-0.000043,77545.440000
7.400000,-2.121263,-2.466028,13.469779,0.002131,-0.013848,4.453871,0.000021,0.000009,-0.000042,77505.760000
7.420000,-2.360683,-2.284068,13.139379,0.000000,-0.015979,4.461327,0.000020,0.000009,-0.000043,77460.160000
7.440000,-2.537854,-2.049437,12.497733,0.000000,-0.015979,4.471980,0.000020,0.000012,-0.000042,77435.040000
7.460000,-2.719813,-1.810016,11.923124,-0.001065,-0.014914,4.478372,0.000018,0.000013,-0.000043,77376.000000
7.480000,-2.839523,-1.608904,11.310209,-0.001065,-0.014914,4.486894,0.000015,0.000014,-0.000043,77339.360000
7.500000,-3.035848,-1.340753,10.740389,-0.004261,-0.014914,4.496481,0.000016,0.000017,-0.000043,77304.960000
7.520000,-3.122039,-1.072602,10.074801,-0.004261,-0.014914,4.502873,0.000013,0.000018,-0.000042,77258.080000
7.540000,-3.184288,-0.780510,9.524134,-0.006392,-0.012783,4.510330,0.000013,0.000018,-0.000041,77215.520000
7.560000,-3.256114,-0.502782,8.839393,-0.007457,-0.014914,4.517786,0.000011,0.000021,-0.000044,77166.720000
7.580000,-3.294421,-0.186748,7.900865,-0.009587,-0.013848,4.528439,0.000009,0.000022,-0.000043,77142.880000
7.600000,-3.289633,0.119710,6.818686,-0.010653,-0.012783,4.533765,0.000006,0.000021,-0.000043,77081.440000
7.620000,-3.260903,0.430956,5.779603,-0.012783,-0.009587,4.539092,0.000005,0.000024,-0.000041,77036.160000
7.640000,-3.260903,0.732626,4.759673,-0.012783,-0.008522,4.544418,0.000004,0.000024,-0.000042,76991.040000
7.660000,-3.150769,1.019930,3.715801,-0.012783,-0.009587,4.552940,0.000001,0.000022,-0.000043,76944.480000
7.680000,-3.011906,1.326388,2.686294,-0.013848,-0.008522,4.555071,-0.000001,0.000022,-0.000043,76912.960000
7.700000,-2.896984,1.584961,1.623269,-0.014914,-0.008522,4.560397,-0.000004,0.000022,-0.000043,76865.440000
7.720000,-2.767697,1.867477,0.933739,-0.013848,-0.006392,4.565723,-0.000005,0.000020,-0.000043,76832.640000
7.740000,-2.552219,2.102109,0.225055,-0.014914,-0.004261,4.569984,-0.000008,0.000023,-0.000043,76776.480000
7.760000,-2.384625,2.327164,-0.502782,-0.013848,-0.004261,4.575311,-0.000010,0.000020,-0.000044,76735.680000
7.780000,-2.178724,2.547431,-1.254562,-0.013848,-0.002131,4.579572,-0.000011,0.000020,-0.000041,76679.840000
7.800000,-1.905785,2.734178,-1.982399,-0.011718,0.000000,4.582768,-0.000011,0.000019,-0.000042,76641.280000
7.820000,-1.680730,2.901772,-2.695871,-0.014914,0.001065,4.584898,-0.000016,0.000018,-0.000043,76611.680000
7.840000,-1.379060,3.055001,-3.418920,-0.013848,0.004261,4.587029,-0.000016,0.000016,-0.000043,76566.560000
7.860000,-1.077391,3.160346,-3.878607,-0.012783,0.003196,4.590224,-0.000019,0.000014,-0.000041,76525.600000
7.880000,-0.790087,3.232172,-4.367024,-0.013848,0.005326,4.593420,-0.000019,0.000014,-0.000043,76480.160000
7.900000,-0.478840,3.313575,-4.865018,-0.010653,0.007457,4.594486,-0.000019,0.000011,-0.000041,76442.880000
7.920000,-0.177171,3.332729,-5.315128,-0.010653,0.006392,4.596616,-0.000020,0.000010,-0.000043,76389.280000
7.940000,0.129287,3.342306,-5.774814,-0.011718,0.009587,4.598747,-0.000020,0.000008,-0.000043,76334.720000
7.960000,0.421379,3.313575,-6.215348,-0.010653,0.009587,4.601942,-0.000022,0.000004,-0.000043,76296.480000
7.980000,0.751779,3.265691,-6.727707,-0.009587,0.010653,4.603008,-0.000022,0.000004,-0.000042,76252.480000
8.000000,1.043872,3.203442,-7.182605,-0.008522,0.011718,4.605138,-0.000023,0.000002,-0.000042,76212.160000
8.020000,1.326388,3.083732,-7.608773,-0.006392,0.011718,4.606203,-0.000022,0.000002,-0.000042,76157.120000
8.040000,1.608904,2.949656,-8.039729,-0.006392,0.012783,4.607269,-0.000023,-0.000001,-0.000043,76128.480000
8.060000,1.900996,2.782062,-8.446743,-0.003196,0.013848,4.607269,-0.000023,-0.000004,-0.000042,76078.400000
8.080000,2.106897,2.595315,-8.901642,-0.003196,0.011718,4.607269,-0.000022,-0.000006,-0.000043,76030.560000
8.100000,2.375048,2.389413,-9.356540,-0.003196,0.011718,4.607269,-0.000019,-0.000008,-0.000041,75995.040000
8.120000,2.619257,2.164358,-9.825804,0.000000,0.014914,4.609399,-0.000020,-0.000010,-0.000043,75939.680000
8.140000,2.801216,1.905785,-10.137050,0.001065,0.011718,4.608334,-0.000020,-0.000013,-0.000042,75896.480000
8.160000,2.954445,1.618480,-10.438719,0.003196,0.013848,4.608334,-0.000019,-0.000015,-0.000044,75864.640000
8.180000,3.107674,1.345541,-10.702081,0.003196,0.013848,4.608334,-0.000016,-0.000016,-0.000043,75825.120000
8.200000,3.213019,1.063026,-11.104307,0.005326,0.014914,4.608334,-0.000014,-0.000016,-0.000044,75775.040000
8.220000,3.308787,0.766145,-11.405977,0.006392,0.009587,4.607269,-0.000013,-0.000019,-0.000041,75726.720000
8.240000,3.375824,0.435745,-11.688493,0.007457,0.012783,4.608334,-0.000013,-0.000021,-0.000043,75692.960000
8.260000,3.423708,0.124498,-12.014104,0.009587,0.010653,4.607269,-0.000011,-0.000020,-0.000042,75637.600000
8.280000,3.394978,-0.201113,-12.215217,0.008522,0.010653,4.606203,-0.000009,-0.000023,-0.000041,75600.800000
8.300000,3.380613,-0.507571,-12.397176,0.009587,0.008522,4.605138,-0.000006,-0.000023,-0.000042,75561.280000
8.320000,3.308787,-0.857124,-12.569559,0.011718,0.009587,4.605138,-0.000006,-0.000023,-0.000043,75517.280000
8.340000,3.222595,-1.163582,-12.732364,0.010653,0.006392,4.603008,-0.000002,-0.000022,-0.000040,75463.200000
8.360000,3.136404,-1.426944,-12.947843,0.011718,0.006392,4.600877,-0.000001,-0.000023,-0.000043,75426.080000
8.380000,2.978387,-1.738190,-13.129802,0.013848,0.003196,4.600877,0.000002,-0.000022,-0.000042,75381.920000
8.400000,2.796428,-2.006341,-13.292608,0.012783,0.003196,4.599812,0.000004,-0.000022,-0.000042,75343.680000
8.420000,2.619257,-2.264915,-13.441048,0.013848,0.001065,4.597681,0.000005,-0.000023,-0.000043,75293.440000
8.440000,2.398990,-2.475605,-13.584700,0.014914,0.000000,4.596616,0.000008,-0.000022,-0.000041,75251.360000
8.460000,2.164358,-2.719813,-13.747506,0.015979,0.000000,4.595551,0.000011,-0.000020,-0.000042,75224.000000
8.480000,1.905785,-2.920926,-13.867216,0.014914,-0.003196,4.593420,0.000013,-0.000020,-0.000042,75153.920000
8.500000,1.618480,-3.064578,-13.953407,0.015979,-0.005326,4.593420,0.000014,-0.000018,-0.000042,75112.800000
8.520000,1.345541,-3.222595,-14.135367,0.014914,-0.004261,4.591290,0.000018,-0.000016,-0.000041,75075.200000
8.540000,1.029507,-3.323152,-14.322114,0.012783,-0.007457,4.589159,0.000017,-0.000017,-0.000042,75035.040000
8.560000,0.713472,-3.409343,-14.432248,0.013848,-0.007457,4.585963,0.000020,-0.000015,-0.000043,74998.240000
8.580000,0.402226,-3.471592,-14.571111,0.011718,-0.010653,4.588094,0.000020,-0.000011,-0.000043,74940.320000
8.600000,0.071826,-3.524265,-14.705187,0.010653,-0.010653,4.583833,0.000021,-0.000010,-0.000042,74903.200000
8.620000,-0.239420,-3.514688,-14.844050,0.011718,-0.010653,4.582768,0.000020,-0.000009,-0.000042,74844.320000
8.640000,-0.588974,-3.476381,-14.968549,0.009587,-0.013848,4.581702,0.000021,-0.000005,-0.000043,74828.640000
8.660000,-0.885855,-3.404555,-15.150508,0.009587,-0.011718,4.580637,0.000022,-0.000005,-0.000043,74781.600000
8.680000,-1.192312,-3.313575,-15.270218,0.007457,-0.011718,4.577441,0.000022,-0.000004,-0.000042,74742.080000
8.700000,-1.527501,-3.203442,-15.380351,0.006392,-0.015979,4.575311,0.000023,-0.000002,-0.000043,74683.840000
8.720000,-1.762132,-3.059790,-15.456966,0.005326,-0.015979,4.573180,0.000022,0.000002,-0.000041,74648.640000
8.740000,-2.059013,-2.882619,-15.552734,0.004261,-0.015979,4.572115,0.000022,0.000003,-0.000041,74603.200000
8.760000,-2.327164,-2.691083,-15.705963,0.003196,-0.015979,4.568919,0.000023,0.000006,-0.000043,74560.960000
8.780000,-2.566584,-2.461239,-15.777789,0.003196,-0.017044,4.566789,0.000022,0.000007,-0.000042,74505.920000
8.800000,-2.796428,-2.226608,-15.921441,0.001065,-0.017044,4.564658,0.000021,0.000010,-0.000043,74464.480000
8.820000,-3.007117,-1.972822,-15.964537,-0.001065,-0.017044,4.563593,0.000020,0.000013,-0.000042,74430.720000
8.840000,-3.160346,-1.680730,-16.084247,-0.003196,-0.014914,4.561462,0.000018,0.000013,-0.000043,74394.080000
8.860000,-3.313575,-1.388637,-16.194380,-0.003196,-0.015979,4.558267,0.000017,0.000016,-0.000042,74327.360000
8.880000,-3.414132,-1.072602,-16.266206,-0.005326,-0.013848,4.555071,0.000016,0.000017,-0.000041,74307.040000
8.900000,-3.505111,-0.766145,-16.357186,-0.006392,-0.015979,4.552940,0.000014,0.000017,-0.000042,74252.960000
8.920000,-3.548207,-0.464475,-16.452954,-0.007457,-0.013848,4.551875,0.000011,0.000021,-0.000042,74210.240000
8.940000,-3.600879,-0.090980,-16.558299,-0.008522,-0.017044,4.549744,0.000011,0.000019,-0.000042,74170.240000
8.960000,-3.581726,0.229843,-156.906400,-0.009587,-0.001065,4.476241,0.000009,0.000022,-0.000041,74140.480000
8.980000,-3.543418,0.550666,-16.797719,-0.010653,-0.013848,4.543353,0.000007,0.000022,-0.000044,74080.320000
9.000000,-3.490746,0.861913,-16.974890,-0.012783,-0.011718,4.540157,0.000005,0.000023,-0.000041,74036.640000
9.020000,-3.418920,1.173159,-17.061081,-0.012783,-0.009587,4.540157,0.000004,0.000024,-0.000042,73986.720000
9.040000,-3.289633,1.489193,-17.214310,-0.011718,-0.008522,4.534831,0.000001,0.000024,-0.000041,73960.320000
9.060000,-3.136404,1.776498,-17.353174,-0.012783,-0.005326,4.530570,-0.000002,0.000024,-0.000042,73908.320000
9.080000,-2.983175,2.063802,-17.511191,-0.014914,-0.006392,4.528439,-0.000004,0.000023,-0.000041,73872.160000
9.100000,-2.777274,2.331952,-17.626113,-0.014914,-0.003196,4.526309,-0.000005,0.000022,-0.000042,73828.320000
9.120000,-2.571373,2.585738,-17.779342,-0.015979,-0.006392,4.524178,-0.000008,0.000023,-0.000040,73771.520000
9.140000,-2.298434,2.815581,-17.855956,-0.015979,-0.003196,4.519917,-0.000010,0.000021,-0.000041,73718.400000
9.160000,-2.059013,3.011906,-17.903840,-0.014914,-0.001065,4.517786,-0.000012,0.000020,-0.000042,73692.160000
9.180000,-1.771709,3.184288,-17.990031,-0.015979,0.000000,4.513525,-0.000013,0.000019,-0.000041,73660.320000
9.200000,-1.474828,3.303998,-18.104953,-0.015979,-0.001065,4.511395,-0.000014,0.000019,-0.000043,73613.760000
9.220000,-1.154005,3.442862,-18.157625,-0.014914,0.006392,4.509264,-0.000017,0.000016,-0.000041,73560.160000
9.240000,-0.837971,3.552995,-18.277335,-0.013848,0.004261,4.507134,-0.000019,0.000014,-0.000042,73528.000000
9.260000,-0.526724,3.624821,-18.377892,-0.013848,0.006392,4.501808,-0.000019,0.000014,-0.000043,73480.160000
9.280000,-0.181959,3.653552,-18.444930,-0.011718,0.006392,4.499677,-0.000021,0.000013,-0.000042,73444.800000
9.300000,0.138864,3.648763,-18.588582,-0.011718,0.007457,4.496481,-0.000022,0.000010,-0.000043,73401.760000
9.320000,0.483629,3.639187,-18.665196,-0.010653,0.007457,4.493285,-0.000022,0.000008,-0.000041,73370.720000
9.340000,0.814029,3.548207,-18.823213,-0.010653,0.013848,4.489024,-0.000022,0.000004,-0.000042,73332.160000
9.360000,1.134852,3.485958,-18.928558,-0.009587,0.011718,4.486894,-0.000024,0.000004,-0.000042,73273.600000
9.380000,1.450886,3.394978,-18.966866,-0.008522,0.012783,4.482633,-0.000024,0.000001,-0.000043,73229.920000
9.400000,1.738190,3.232172,-19.086576,-0.006392,0.012783,4.480502,-0.000023,-0.000001,-0.000043,73189.760000
9.420000,2.039860,3.064578,-19.163190,-0.006392,0.013848,4.476241,-0.000024,-0.000004,-0.000041,73145.280000
9.440000,2.312799,2.877830,-19.215863,-0.005326,0.013848,4.471980,-0.000023,-0.000004,-0.000043,73120.160000
9.460000,2.557007,2.633622,-19.292477,-0.002131,0.012783,4.467719,-0.000023,-0.000005,-0.000043,73073.440000
9.480000,2.782062,2.422932,-19.393033,-0.001065,0.014914,4.465589,-0.000022,-0.000010,-0.000042,73026.400000
9.500000,3.002329,2.159570,-19.464859,0.000000,0.012783,4.462393,-0.000022,-0.000011,-0.000042,72983.840000
9.520000,3.189077,1.877054,-19.589358,0.001065,0.014914,4.459197,-0.000019,-0.000013,-0.000042,72945.440000
9.540000,3.366248,1.565808,-19.718645,0.003196,0.014914,4.454936,-0.000017,-0.000014,-0.000043,72885.120000
9.560000,3.476381,1.302446,-19.780894,0.003196,0.013848,4.450675,-0.000017,-0.000015,-0.000040,72847.840000
9.580000,3.567360,0.948104,-19.871874,0.005326,0.012783,4.449610,-0.000017,-0.000017,-0.000041,72805.920000
9.600000,3.663129,0.636858,-19.972430,0.007457,0.011718,4.443218,-0.000014,-0.000018,-0.000042,72771.200000
9.620000,3.730166,0.301669,-20.082564,0.008522,0.015979,4.440022,-0.000013,-0.000022,-0.000042,72725.600000
9.640000,3.730166,-0.038307,-20.168755,0.009587,0.010653,4.437892,-0.000011,-0.000022,-0.000041,72680.000000
9.660000,3.730166,-0.387861,-20.298042,0.009587,0.009587,4.431500,-0.000010,-0.000021,-0.000042,72633.600000
9.680000,3.701436,-0.713472,-20.422540,0.010653,0.009587,4.428304,-0.000008,-0.000024,-0.000041,72599.360000
9.700000,3.610456,-1.024718,-20.503943,0.012783,0.010653,4.424043,-0.000005,-0.000023,-0.000041,72555.840000
9.720000,3.500323,-1.355118,-20.604499,0.011718,0.009587,4.419782,-0.000002,-0.000023,-0.000041,72520.320000
9.740000,3.375824,-1.651999,-20.685902,0.012783,0.005326,4.416586,-0.000002,-0.000024,-0.000043,72477.280000
9.760000,3.198653,-1.963245,-20.786459,0.013848,0.005326,4.411260,0.000001,-0.000025,-0.000042,72432.480000
9.780000,3.035848,-2.245761,-20.896592,0.013848,0.004261,4.408064,0.000002,-0.000022,-0.000043,72398.720000
9.800000,2.806004,-2.513912,-20.977995,0.017044,0.003196,4.403803,0.000006,-0.000022,-0.000042,72340.960000
9.820000,2.580949,-2.758120,-20.997149,0.015979,-0.001065,4.400607,0.000008,-0.000022,-0.000043,72314.400000
9.840000,2.298434,-2.987964,-21.083340,0.017044,0.000000,4.396346,0.000007,-0.000023,-0.000041,72258.080000
9.860000,2.063802,-3.193865,-21.083340,0.017044,-0.003196,4.392085,0.000011,-0.000020,-0.000041,72219.200000
9.880000,1.771709,-3.375824,-21.131224,0.015979,-0.001065,4.385694,0.000013,-0.000020,-0.000041,72170.720000
9.900000,1.493982,-3.524265,-21.179108,0.015979,-0.004261,4.384628,0.000016,-0.000020,-0.000042,72136.480000
9.920000,1.158794,-3.624821,-21.203050,0.014914,-0.006392,4.379302,0.000015,-0.000017,-0.000041,72098.560000
9.940000,0.828394,-3.734955,-21.265299,0.014914,-0.005326,4.371845,0.000017,-0.000017,-0.000041,72060.960000
9.960000,0.507571,-3.782839,-21.294030,0.015979,-0.007457,4.369715,0.000019,-0.000014,-0.000041,72021.120000
9.980000,0.158017,-3.835511,-21.356279,0.013848,-0.008522,4.367584,0.000019,-0.000012,-0.000043,71978.720000
10.000000,-0.158017,-3.825934,-21.485566,0.012783,-0.006392,4.362258,0.000021,-0.000011,-0.000042,71936.320000
10.020000,-0.526724,-3.816357,-21.514296,0.011718,-0.011718,4.355866,0.000022,-0.000008,-0.000043,71884.640000
10.040000,-0.842759,-3.782839,-21.600487,0.011718,-0.010653,4.354801,0.000022,-0.000007,-0.000042,71851.040000
10.060000,-1.173159,-3.701436,-21.643583,0.010653,-0.014914,4.348409,0.000025,-0.000005,-0.000041,71816.320000
10.080000,-1.489193,-3.572149,-21.734563,0.012783,-0.014914,4.347344,0.000022,-0.000005,-0.000041,71778.720000
10.100000,-1.790863,-3.438074,-21.748928,0.007457,-0.013848,4.338822,0.000025,-0.000001,-0.000041,71726.880000
10.120000,-2.073379,-3.265691,-21.815966,0.008522,-0.018109,4.335626,0.000024,0.000003,-0.000041,71674.880000
10.140000,-2.346318,-3.088520,-21.849484,0.004261,-0.014914,4.329235,0.000023,0.000002,-0.000041,71643.040000
10.160000,-2.638410,-2.887407,-21.868638,0.005326,-0.015979,4.327104,0.000022,0.000005,-0.000042,71610.560000
10.180000,-2.873042,-2.633622,-21.902157,0.001065,-0.018109,4.321778,0.000023,0.000008,-0.000043,71577.600000
10.200000,-3.107674,-2.370260,-21.911734,0.002131,-0.015979,4.316451,0.000022,0.000010,-0.000040,71528.160000
10.220000,-3.323152,-2.106897,-21.959618,0.001065,-0.017044,4.312190,0.000023,0.000011,-0.000043,71489.440000
10.240000,-3.490746,-1.790863,-21.945252,-0.002131,-0.017044,4.308995,0.000020,0.000014,-0.000041,71444.800000
10.260000,-3.624821,-1.508347,-21.906945,-0.004261,-0.018109,4.302603,0.000021,0.000014,-0.000042,71413.120000
10.280000,-3.754108,-1.197101,-21.950041,-0.005326,-0.015979,4.299407,0.000017,0.000016,-0.000041,71365.760000
10.300000,-3.845088,-0.881066,-21.954829,-0.004261,-0.017044,4.294081,0.000017,0.000017,-0.000041,71317.920000
10.320000,-3.921702,-0.536301,-21.935676,-0.008522,-0.017044,4.289820,0.000015,0.000020,-0.000043,71286.880000
10.340000,-3.955221,-0.191536,-21.926099,-0.009587,-0.013848,4.284494,0.000013,0.000021,-0.000043,71236.640000
10.360000,-3.945644,0.143652,-21.940464,-0.010653,-0.014914,4.282363,0.000011,0.000021,-0.000042,71197.280000
10.380000,-3.926491,0.497994,-21.930887,-0.010653,-0.015979,4.275971,0.000010,0.000022,-0.000042,71159.040000
10.400000,-3.854665,0.818817,-22.007502,-0.010653,-0.013848,4.271710,0.000008,0.000023,-0.000043,71124.000000
10.420000,-3.797204,1.154005,-22.031444,-0.012783,-0.009587,4.267449,0.000006,0.000022,-0.000042,71082.400000
10.440000,-3.672705,1.489193,-22.045809,-0.012783,-0.009587,4.262123,0.000002,0.000024,-0.000043,71039.200000
10.460000,-3.529053,1.790863,-22.084116,-0.013848,-0.009587,4.256797,-0.000001,0.000023,-0.000041,70998.880000
10.480000,-3.361459,2.082955,-22.084116,-0.014914,-0.009587,4.252536,0.000001,0.000025,-0.000041,70965.120000
10.500000,-3.198653,2.365471,-22.098481,-0.014914,-0.008522,4.249340,-0.000002,0.000024,-0.000042,70917.920000
10.520000,-2.992752,2.638410,-22.155942,-0.014914,-0.005326,4.244014,-0.000004,0.000025,-0.000042,70880.640000
10.540000,-2.753332,2.887407,-22.189461,-0.017044,-0.005326,4.238687,-0.000007,0.000023,-0.000041,70849.760000
10.560000,-2.533065,3.098097,-22.184673,-0.017044,-0.003196,4.234426,-0.000009,0.000023,-0.000041,70793.120000
10.580000,-2.236184,3.308787,-22.232557,-0.018109,-0.001065,4.228035,-0.000011,0.000022,-0.000043,70763.520000
10.600000,-1.948880,3.495534,-22.285229,-0.017044,0.002131,4.224839,-0.000011,0.000021,-0.000042,70724.800000
10.620000,-1.651999,3.672705,-22.313959,-0.015979,0.003196,4.221643,-0.000014,0.000019,-0.000041,70699.200000
10.640000,-1.326388,3.806781,-22.352267,-0.017044,0.003196,4.217382,-0.000014,0.000020,-0.000042,70652.000000
10.660000,-1.034295,3.902549,-22.347478,-0.015979,0.001065,4.210990,-0.000018,0.000018,-0.000041,70596.000000
10.680000,-0.689530,3.969586,-22.361844,-0.013848,0.004261,4.205664,-0.000019,0.000015,-0.000041,70563.840000
10.700000,-0.296881,3.988740,-22.419304,-0.014914,0.008522,4.202468,-0.000020,0.000017,-0.000041,70522.080000
10.720000,0.023942,4.027047,-22.471977,-0.013848,0.006392,4.199272,-0.000021,0.000013,-0.000041,70483.040000
10.740000,0.354342,3.993528,-22.471977,-0.012783,0.009587,4.190750,-0.000022,0.000011,-0.000042,70447.680000
10.760000,0.708684,3.964798,-22.515072,-0.012783,0.008522,4.186489,-0.000022,0.000009,-0.000041,70409.600000
10.780000,1.048660,3.921702,-22.543803,-0.011718,0.010653,4.183293,-0.000023,0.000007,-0.000041,70371.200000
10.800000,1.345541,3.797204,-22.601264,-0.010653,0.009587,4.177967,-0.000024,0.000005,-0.000041,70331.360000
10.820000,1.699883,3.687071,-22.586898,-0.010653,0.011718,4.172641,-0.000023,0.000004,-0.000042,70290.240000
10.840000,1.972822,3.519476,-22.615629,-0.007457,0.012783,4.168380,-0.000024,0.000001,-0.000043,70252.000000
10.860000,2.274492,3.356671,-22.596475,-0.007457,0.015979,4.164119,-0.000024,0.000000,-0.000042,70198.880000
10.880000,2.552219,3.155558,-22.644359,-0.006392,0.017044,4.159858,-0.000024,-0.000002,-0.000042,70173.280000
10.900000,2.796428,2.916138,-22.625206,-0.005326,0.013848,4.153466,-0.000023,-0.000006,-0.000041,70115.040000
10.920000,3.059790,2.681506,-22.663513,-0.005326,0.013848,4.149205,-0.000025,-0.000007,-0.000042,70091.040000
10.940000,3.275268,2.418144,-22.725762,-0.001065,0.018109,4.144944,-0.000022,-0.000010,-0.000041,70053.920000
10.960000,3.466804,2.149993,-22.740127,0.001065,0.014914,4.139618,-0.000022,-0.000011,-0.000041,70020.160000
10.980000,3.658340,1.862689,-22.773646,0.002131,0.014914,4.134291,-0.000021,-0.000014,-0.000041,69976.960000
11.000000,3.849876,1.561019,-22.826319,0.000000,0.017044,4.130030,-0.000021,-0.000014,-0.000041,69936.480000
11.020000,3.974375,1.230620,-22.888568,0.001065,0.013848,4.125769,-0.000019,-0.000015,-0.000042,69910.400000
11.040000,4.118027,0.890643,-22.946029,0.003196,0.012783,4.120443,-0.000017,-0.000017,-0.000041,69884.960000
11.060000,4.170699,0.541090,-22.974759,0.001065,0.010653,4.114051,-0.000015,-0.000019,-0.000041,69846.240000
11.080000,4.218583,0.210690,-22.907721,0.002131,0.010653,4.110855,-0.000014,-0.000020,-0.000041,69815.680000
11.100000,4.218583,-0.153229,-22.979548,-0.001065,0.008522,4.105529,-0.000011,-0.000022,-0.000041,69771.360000
11.120000,4.156334,-0.493206,-22.936452,0.001065,0.009587,4.101268,-0.000010,-0.000022,-0.000042,69732.960000
11.140000,4.074931,-0.842759,-22.950817,0.000000,0.008522,4.094876,-0.000009,-0.000023,-0.000041,69713.120000
11.160000,3.936068,-1.134852,-22.950817,0.002131,0.008522,4.088485,-0.000008,-0.000023,-0.000041,69665.760000
11.180000,3.830723,-1.431733,-22.969971,0.003196,0.009587,4.084224,-0.000006,-0.000024,-0.000042,69635.680000
11.200000,3.691859,-1.704672,-22.989124,0.004261,0.008522,4.079963,-0.000004,-0.000024,-0.000041,69601.600000
11.220000,3.529053,-1.977611,-22.946029,0.006392,0.008522,4.073571,-0.000001,-0.000025,-0.000041,69562.400000
11.240000,3.351882,-2.279280,-22.917298,0.007457,0.007457,4.071441,0.000001,-0.000023,-0.000042,69531.840000
11.260000,3.160346,-2.542642,-22.946029,0.010653,0.008522,4.065049,0.000004,-0.000023,-0.000043,69504.480000
11.280000,3.002329,-2.839523,-22.922087,0.013848,0.004261,4.060788,0.000005,-0.000025,-0.000041,69457.760000
11.300000,2.724601,-3.093309,-22.926875,0.014914,0.002131,4.055462,0.000007,-0.000023,-0.000042,69437.920000
11.320000,2.499547,-3.351882,-22.878991,0.014914,0.001065,4.049070,0.000007,-0.000025,-0.000041,69400.160000
11.340000,2.207454,-3.572149,-22.926875,0.013848,0.002131,4.044809,0.000011,-0.000022,-0.000041,69374.880000
11.360000,1.915361,-3.797204,-22.878991,0.014914,0.000000,4.039483,0.000013,-0.000022,-0.000041,69328.000000
11.380000,1.551443,-3.983952,-22.883779,0.014914,0.000000,4.036287,0.000014,-0.000020,-0.000041,69291.040000
11.400000,1.244985,-4.084508,-22.917298,0.012783,0.000000,4.030961,0.000015,-0.000018,-0.000042,69256.320000
11.420000,0.924162,-4.175488,-22.907721,0.012783,0.001065,4.025634,0.000017,-0.000018,-0.000041,69223.360000
11.440000,0.569820,-4.256891,-22.946029,0.011718,-0.002131,4.020308,0.000019,-0.000018,-0.000040,69197.760000
11.460000,0.229843,-4.256891,-22.941240,0.010653,-0.001065,4.013916,0.000019,-0.000015,-0.000040,69158.080000
11.480000,-0.095768,-4.256891,-22.989124,0.011718,-0.003196,4.009655,0.000019,-0.000014,-0.000041,69124.480000
11.500000,-0.411803,-4.228160,-22.993913,0.010653,0.000000,4.005394,0.000022,-0.000012,-0.000041,69089.440000
11.520000,-0.689530,-4.165911,-22.974759,0.009587,-0.002131,4.001133,0.000023,-0.000008,-0.000041,69057.280000
11.540000,-1.005565,-4.118027,-23.032220,0.011718,-0.005326,3.994742,0.000023,-0.000008,-0.000041,69039.840000
11.560000,-1.355118,-4.022259,-23.017855,0.010653,-0.004261,3.990481,0.000024,-0.000007,-0.000040,69001.280000
11.580000,-1.651999,-3.921702,-23.003490,0.010653,-0.007457,3.983024,0.000023,-0.000005,-0.000041,68959.200000
11.600000,-1.948880,-3.801992,-23.027432,0.009587,-0.006392,3.979828,0.000026,-0.000001,-0.000042,68916.800000
11.620000,-2.221819,-3.620033,-23.075316,0.009587,-0.009587,3.974502,0.000025,0.000000,-0.000041,68896.960000
11.640000,-2.509123,-3.428497,-23.113623,0.006392,-0.010653,3.970241,0.000024,0.000002,-0.000042,68853.120000
11.660000,-2.820370,-3.227384,-23.104046,0.008522,-0.012783,3.964914,0.000025,0.000005,-0.000041,68818.720000
11.680000,-3.069367,-2.968810,-23.190237,0.006392,-0.014914,3.961718,0.000024,0.000005,-0.000041,68793.760000
11.700000,-3.337517,-2.715025,-23.238121,0.005326,-0.013848,3.955327,0.000023,0.000007,-0.000043,68752.480000
11.720000,-3.538630,-2.413355,-23.223756,0.005326,-0.013848,3.947870,0.000025,0.000007,-0.000041,68734.560000
11.740000,-3.739743,-2.135628,-23.238121,0.002131,-0.014914,3.944674,0.000023,0.000012,-0.000041,68707.680000
11.760000,-3.921702,-1.848324,-23.357831,0.002131,-0.014914,3.939348,0.000022,0.000012,-0.000040,68672.960000
11.780000,-4.036624,-1.503559,-23.329101,0.003196,-0.012783,3.936152,0.000020,0.000013,-0.000041,68637.120000
11.800000,-4.161122,-1.197101,-23.353043,0.003196,-0.013848,3.929761,0.000019,0.000016,-0.000041,68601.760000
11.820000,-4.228160,-0.871489,-23.319524,0.000000,-0.013848,3.924434,0.000020,0.000017,-0.000040,68555.680000
11.840000,-4.295198,-0.526724,-23.362620,0.000000,-0.013848,3.918043,0.000016,0.000019,-0.000042,68534.560000
11.860000,-4.314351,-0.220267,-23.367408,0.000000,-0.012783,3.912716,0.000014,0.000019,-0.000040,68495.360000
11.880000,-4.343082,0.081403,-23.367408,-0.001065,-0.011718,3.909520,0.000014,0.000019,-0.000042,68455.840000
11.900000,-4.314351,0.435745,-23.353043,-0.002131,-0.012783,3.905259,0.000011,0.000022,-0.000041,68427.200000
11.920000,-4.285621,0.780510,-23.376985,-0.002131,-0.011718,3.898868,0.000010,0.000023,-0.000041,68408.160000
11.940000,-4.247314,1.077391,-23.420081,-0.004261,-0.011718,3.893542,0.000008,0.000023,-0.000040,68368.960000
11.960000,-4.127604,1.398214,-23.415292,-0.003196,-0.013848,3.889280,0.000005,0.000025,-0.000041,68339.040000
11.980000,-4.012682,1.719037,-23.501483,-0.008522,-0.012783,3.882889,0.000004,0.000023,-0.000041,68288.480000
12.000000,-3.869030,2.044648,-23.506272,-0.008522,-0.009587,3.877563,0.000002,0.000023,-0.000041,68273.760000
12.020000,-3.701436,2.346318,-23.511060,-0.008522,-0.011718,3.873301,0.000001,0.000025,-0.000040,68246.560000
12.040000,-3.548207,2.628833,-23.525426,-0.010653,-0.007457,3.867975,-0.000001,0.000024,-0.000042,68208.160000
12.060000,-3.332729,2.901772,-23.554156,-0.011718,-0.010653,3.863714,-0.000004,0.000025,-0.000041,68176.960000
12.080000,-3.055001,3.150769,-23.582886,-0.013848,-0.009587,3.856257,-0.000005,0.000025,-0.000041,68140.640000
12.100000,-2.801216,3.371036,-23.563733,-0.010653,-0.006392,3.851996,-0.000007,0.000024,-0.000041,68112.320000
12.120000,-2.557007,3.572149,-23.558944,-0.011718,-0.005326,3.845605,-0.000011,0.000023,-0.000040,68079.840000
12.140000,-2.284068,3.773262,-23.558944,-0.012783,-0.004261,3.840278,-0.000010,0.000022,-0.000041,68037.600000
12.160000,-1.977611,3.921702,-23.568521,-0.011718,-0.004261,3.834952,-0.000012,0.000022,-0.000043,68005.920000
12.180000,-1.651999,4.065354,-23.582886,-0.012783,-0.003196,3.831756,-0.000014,0.000018,-0.000041,67976.320000
12.200000,-1.340753,4.185065,-23.582886,-0.012783,-0.004261,3.824299,-0.000016,0.000020,-0.000041,67945.920000
12.220000,-1.029507,4.290409,-23.544579,-0.012783,-0.002131,3.821104,-0.000016,0.000017,-0.000041,67918.400000
12.240000,-0.675165,4.362235,-23.525426,-0.013848,0.000000,3.815777,-0.000018,0.000017,-0.000041,67884.000000
12.260000,-0.335188,4.390966,-23.525426,-0.012783,0.001065,3.810451,-0.000017,0.000014,-0.000041,67855.840000
12.280000,-0.014365,4.429273,-23.515849,-0.011718,0.000000,3.804059,-0.000020,0.000014,-0.000042,67815.840000
12.300000,0.339977,4.414908,-23.496695,-0.012783,0.001065,3.800864,-0.000021,0.000013,-0.000041,67791.040000
12.320000,0.636858,4.386177,-23.453599,-0.012783,0.004261,3.794472,-0.000023,0.000011,-0.000042,67761.440000
12.340000,0.986411,4.319140,-23.482330,-0.010653,0.005326,3.790211,-0.000023,0.000011,-0.000041,67722.880000
12.360000,1.326388,4.223372,-23.496695,-0.012783,0.006392,3.782754,-0.000022,0.000006,-0.000041,67692.000000
12.380000,1.623269,4.127604,-23.463176,-0.013848,0.006392,3.778493,-0.000025,0.000005,-0.000041,67662.720000
12.400000,1.924938,3.979163,-23.477541,-0.012783,0.009587,3.774232,-0.000024,0.000004,-0.000043,67624.640000
12.420000,2.245761,3.840299,-23.491907,-0.010653,0.009587,3.768906,-0.000026,0.000001,-0.000042,67597.440000
12.440000,2.542642,3.667917,-23.463176,-0.008522,0.010653,3.762514,-0.000026,0.000000,-0.000041,67561.280000
12.460000,2.806004,3.452439,-23.520637,-0.008522,0.011718,3.759318,-0.000025,-0.000003,-0.000041,67538.400000
12.480000,3.069367,3.236961,-23.496695,-0.006392,0.011718,3.751861,-0.000025,-0.000003,-0.000040,67505.120000
12.500000,3.303998,3.021482,-23.482330,-0.007457,0.009587,3.747600,-0.000024,-0.000007,-0.000040,67471.840000
12.520000,3.519476,2.762909,-23.501483,-0.005326,0.010653,3.742274,-0.000025,-0.000007,-0.000041,67448.640000
12.540000,3.720589,2.480393,-23.535002,-0.004261,0.013848,3.735882,-0.000024,-0.000009,-0.000040,67410.880000
12.560000,3.936068,2.217031,-23.582886,-0.004261,0.011718,3.732687,-0.000023,-0.000010,-0.000041,67381.120000
12.580000,4.084508,1.896208,-23.592463,-0.004261,0.012783,3.727360,-0.000021,-0.000011,-0.000041,67351.520000
12.600000,4.209007,1.584961,-23.568521,-0.002131,0.010653,3.720969,-0.000020,-0.000011,-0.000040,67328.320000
12.620000,4.314351,1.268927,-23.573310,-0.001065,0.012783,3.714577,-0.000019,-0.000014,-0.000041,67281.120000
12.640000,4.367024,0.943315,-23.587675,-0.001065,0.014914,3.711381,-0.000019,-0.000018,-0.000041,67264.320000
12.660000,4.458003,0.622492,-23.592463,-0.001065,0.012783,3.704990,-0.000016,-0.000019,-0.000043,67227.360000
12.680000,4.496311,0.296881,-23.611617,0.000000,0.013848,3.699663,-0.000016,-0.000019,-0.000041,67206.400000
12.700000,4.510676,-0.043096,-23.606828,0.002131,0.013848,3.696468,-0.000014,-0.000019,-0.000040,67161.600000
12.720000,4.505888,-0.378284,-23.606828,0.003196,0.014914,3.689011,-0.000013,-0.000021,-0.000040,67134.720000
12.740000,4.491522,-0.708684,-23.602040,0.004261,0.012783,3.684750,-0.000010,-0.000023,-0.000041,67100.320000
12.760000,4.381389,-1.048660,-23.592463,0.004261,0.011718,3.679423,-0.000010,-0.000023,-0.000040,67077.600000
12.780000,4.304775,-1.383849,-23.597252,0.006392,0.012783,3.674097,-0.000007,-0.000023,-0.000041,67049.280000
12.800000,4.204218,-1.666364,-23.645136,0.006392,0.014914,3.669836,-0.000004,-0.000025,-0.000041,67009.600000
12.820000,4.074931,-2.011129,-23.597252,0.009587,0.012783,3.662379,-0.000007,-0.000025,-0.000040,66978.720000
12.840000,3.926491,-2.303222,-23.621194,0.008522,0.010653,3.659183,-0.000002,-0.000025,-0.000042,66956.320000
12.860000,3.763685,-2.576161,-23.625982,0.010653,0.007457,3.652792,-0.000001,-0.000025,-0.000041,66924.320000
12.880000,3.562572,-2.873042,-23.611617,0.009587,0.009587,3.645335,0.000000,-0.000025,-0.000041,66901.760000
12.900000,3.356671,-3.131616,-23.582886,0.009587,0.007457,3.642139,0.000004,-0.000023,-0.000041,66856.160000
12.920000,3.131616,-3.366248,-23.621194,0.012783,0.008522,3.636813,0.000004,-0.000024,-0.000041,66825.920000
12.940000,2.887407,-3.557784,-23.563733,0.013848,0.005326,3.631486,0.000007,-0.000023,-0.000041,66800.000000
12.960000,2.580949,-3.797204,-23.563733,0.012783,0.005326,3.626160,0.000008,-0.000024,-0.000041,66768.480000
12.980000,2.327164,-3.988740,-23.535002,0.012783,0.005326,3.620834,0.000011,-0.000023,-0.000040,66734.400000
13.000000,2.035071,-4.146757,-23.573310,0.013848,0.005326,3.616573,0.000012,-0.000023,-0.000040,66718.240000
13.020000,1.723825,-4.280833,-23.539791,0.014914,0.002131,3.610181,0.000012,-0.000021,-0.000040,66679.200000
13.040000,1.407791,-4.419696,-23.554156,0.012783,0.002131,3.606985,0.000014,-0.000020,-0.000040,66658.240000
13.060000,1.120486,-4.515464,-23.539791,0.015979,0.001065,3.601659,0.000015,-0.000020,-0.000041,66625.280000
13.080000,0.780510,-4.568137,-23.496695,0.012783,-0.001065,3.594202,0.000018,-0.000019,-0.000041,66592.320000
13.100000,0.430956,-4.596867,-23.472753,0.014914,0.000000,3.589941,0.000020,-0.000017,-0.000041,66562.560000
13.120000,0.114922,-4.649540,-23.477541,0.013848,-0.002131,3.586745,0.000020,-0.000017,-0.000040,66524.160000
13.140000,-0.234632,-4.639963,-23.482330,0.014914,-0.005326,3.579289,0.000022,-0.000014,-0.000041,66494.560000
13.160000,-0.536301,-4.630386,-23.434446,0.012783,-0.006392,3.575027,0.000022,-0.000013,-0.000041,66464.800000
13.180000,-0.890643,-4.577714,-23.458388,0.013848,-0.006392,3.570766,0.000022,-0.000010,-0.000041,66443.360000
13.200000,-1.230620,-4.510676,-23.467965,0.012783,-0.007457,3.565440,0.000023,-0.000011,-0.000041,66401.120000
13.220000,-1.527501,-4.443638,-23.434446,0.013848,-0.006392,3.559048,0.000024,-0.000008,-0.000040,66381.600000
13.240000,-1.833958,-4.323928,-23.463176,0.013848,-0.007457,3.551592,0.000026,-0.000004,-0.000041,66345.600000
13.260000,-2.145205,-4.175488,-23.458388,0.011718,-0.010653,3.548396,0.000026,-0.000004,-0.000043,66320.960000
13.280000,-2.422932,-4.017470,-23.429657,0.011718,-0.010653,3.543070,0.000025,-0.000002,-0.000041,66286.400000
13.300000,-2.734178,-3.825934,-23.434446,0.011718,-0.010653,3.538808,0.000024,0.000000,-0.000041,66255.360000
13.320000,-2.992752,-3.639187,-23.453599,0.008522,-0.012783,3.532417,0.000025,0.000002,-0.000041,66226.240000
13.340000,-3.232172,-3.423708,-23.439234,0.008522,-0.013848,3.529221,0.000025,0.000003,-0.000041,66202.720000
13.360000,-3.485958,-3.203442,-23.424869,0.007457,-0.013848,3.521764,0.000024,0.000005,-0.000041,66166.240000
13.380000,-3.730166,-2.968810,-23.405715,0.007457,-0.013848,3.516438,0.000026,0.000005,-0.000040,66141.760000
13.400000,-3.916914,-2.676717,-23.405715,0.007457,-0.015979,3.512177,0.000023,0.000006,-0.000040,66113.760000
13.420000,-4.103662,-2.408567,-23.400927,0.004261,-0.014914,3.506851,0.000023,0.000009,-0.000041,66080.480000
13.440000,-4.252102,-2.121263,-23.410504,0.005326,-0.015979,3.502589,0.000023,0.000010,-0.000040,66048.960000
13.460000,-4.400543,-1.814805,-23.357831,0.003196,-0.015979,3.495133,0.000023,0.000014,-0.000041,66028.480000
13.480000,-4.520253,-1.508347,-23.338678,0.002131,-0.014914,3.490872,0.000020,0.000014,-0.000041,66006.880000
13.500000,-4.620809,-1.192312,-23.348255,0.001065,-0.017044,3.484480,0.000019,0.000016,-0.000041,65983.680000
13.520000,-4.692635,-0.876278,-23.343466,0.001065,-0.014914,3.480219,0.000018,0.000016,-0.000041,65938.880000
13.540000,-4.750096,-0.545878,-23.305159,0.001065,-0.015979,3.474893,0.000017,0.000020,-0.000041,65904.800000
13.560000,-4.783615,-0.210690,-23.276429,-0.002131,-0.014914,3.468501,0.000016,0.000020,-0.000040,65871.840000
13.580000,-4.817134,0.138864,-23.286005,-0.002131,-0.014914,3.466370,0.000014,0.000020,-0.000041,65855.520000
13.600000,-4.778827,0.454898,-23.252487,-0.004261,-0.014914,3.461044,0.000014,0.000022,-0.000041,65819.040000
13.620000,-4.745308,0.775721,-23.228545,-0.004261,-0.015979,3.454653,0.000011,0.000022,-0.000041,65803.040000
13.640000,-4.702212,1.086968,-23.242910,-0.006392,-0.013848,3.449326,0.000010,0.000024,-0.000040,65767.680000
13.660000,-4.592079,1.446098,-23.228545,-0.008522,-0.013848,3.442935,0.000008,0.000025,-0.000041,65747.200000
13.680000,-4.501099,1.738190,-23.156718,-0.009587,-0.013848,3.439739,0.000008,0.000024,-0.000041,65721.920000
13.700000,-4.362235,2.054225,-23.195026,-0.008522,-0.014914,3.434413,0.000004,0.000024,-0.000040,65684.000000
13.720000,-4.232949,2.346318,-23.180660,-0.007457,-0.012783,3.430151,0.000004,0.000026,-0.000040,65643.520000
13.740000,-4.041412,2.657564,-23.185449,-0.010653,-0.011718,3.424825,0.000001,0.000025,-0.000041,65625.760000
13.760000,-3.859453,2.906561,-23.195026,-0.010653,-0.011718,3.420564,-0.000001,0.000026,-0.000040,65595.520000
13.780000,-3.648763,3.160346,-23.108834,-0.011718,-0.011718,3.414173,-0.000001,0.000025,-0.000040,65569.920000
13.800000,-3.447650,3.418920,-23.123200,-0.011718,-0.010653,3.410977,-0.000004,0.000026,-0.000041,65541.760000
13.820000,-3.208230,3.648763,-23.118411,-0.013848,-0.008522,3.404585,-0.000005,0.000026,-0.000041,65517.920000
13.840000,-2.949656,3.864241,-23.075316,-0.014914,-0.007457,3.400324,-0.000007,0.000026,-0.000042,65489.600000
13.860000,-2.691083,4.060566,-23.056162,-0.013848,-0.009587,3.396063,-0.000008,0.000024,-0.000040,65471.200000
13.880000,-2.384625,4.232949,-23.046585,-0.015979,-0.007457,3.388606,-0.000010,0.000022,-0.000040,65424.480000
13.900000,-2.135628,4.395754,-23.037008,-0.014914,-0.004261,3.384345,-0.000013,0.000022,-0.000040,65396.640000
13.920000,-1.824382,4.525041,-23.051374,-0.015979,-0.005326,3.379019,-0.000014,0.000023,-0.000040,65362.080000
13.940000,-1.517924,4.649540,-22.965182,-0.017044,-0.002131,3.375823,-0.000014,0.000021,-0.000041,65340.640000
13.960000,-1.182736,4.730942,-22.969971,-0.015979,-0.002131,3.367301,-0.000017,0.000020,-0.000041,65315.200000
13.980000,-0.847547,4.836287,-22.974759,-0.014914,0.000000,3.363040,-0.000017,0.000017,-0.000040,65297.760000
14.000000,-0.560243,4.874595,-22.974759,-0.017044,0.000000,3.357714,-0.000019,0.000018,-0.000040,65262.080000
14.020000,-0.201113,4.912902,-22.955606,-0.014914,-0.001065,3.353452,-0.000020,0.000016,-0.000041,65232.000000
14.040000,0.119710,4.936844,-22.912510,-0.013848,0.000000,3.347061,-0.000021,0.000015,-0.000040,65200.160000
14.060000,0.426168,4.888960,-22.902933,-0.017044,0.001065,3.343865,-0.000022,0.000013,-0.000041,65179.520000
14.080000,0.780510,4.850653,-22.912510,-0.014914,0.003196,3.338539,-0.000024,0.000013,-0.000041,65152.640000
14.100000,1.106121,4.802769,-22.878991,-0.014914,0.004261,3.334278,-0.000023,0.000011,-0.000040,65107.360000
14.120000,1.398214,4.726154,-22.850261,-0.014914,0.006392,3.328951,-0.000026,0.000011,-0.000040,65092.960000
14.140000,1.742979,4.639963,-22.859837,-0.011718,0.005326,3.324690,-0.000026,0.000009,-0.000040,65064.000000
14.160000,2.054225,4.491522,-22.835895,-0.013848,0.005326,3.318299,-0.000025,0.000005,-0.000040,65044.960000
14.180000,2.346318,4.367024,-22.826319,-0.013848,0.008522,3.311907,-0.000026,0.000006,-0.000041,65021.600000
14.200000,2.624045,4.204218,-22.797588,-0.011718,0.008522,3.310842,-0.000026,0.000002,-0.000040,64989.120000
14.220000,2.887407,4.017470,-22.821530,-0.012783,0.011718,3.304450,-0.000026,0.000000,-0.000040,64965.120000
14.240000,3.165135,3.825934,-22.764069,-0.010653,0.010653,3.299124,-0.000026,-0.000001,-0.000040,64933.600000
14.260000,3.442862,3.610456,-22.764069,-0.011718,0.012783,3.293798,-0.000025,-0.000002,-0.000041,64904.320000
14.280000,3.672705,3.394978,-22.768858,-0.009587,0.013848,3.289537,-0.000025,-0.000005,-0.000039,64867.040000
14.300000,3.883395,3.145981,-22.735339,-0.008522,0.015979,3.285276,-0.000026,-0.000007,-0.000040,64829.280000
14.320000,4.098873,2.858677,-22.749704,-0.008522,0.013848,3.278884,-0.000026,-0.000007,-0.000041,64829.600000
14.340000,4.261679,2.609680,-22.720974,-0.007457,0.013848,3.273558,-0.000023,-0.000009,-0.000041,64791.040000
14.360000,4.434061,2.312799,-22.697032,-0.005326,0.014914,3.269297,-0.000023,-0.000012,-0.000040,64763.840000
14.380000,4.582502,2.020706,-22.677878,-0.002131,0.015979,3.262905,-0.000023,-0.000011,-0.000040,64737.280000
14.400000,4.678270,1.723825,-22.687455,-0.005326,0.015979,3.257579,-0.000023,-0.000014,-0.000039,64704.800000
14.420000,4.807557,1.412579,-22.629994,-0.003196,0.015979,3.253318,-0.000020,-0.000017,-0.000040,64685.440000
14.440000,4.893748,1.101333,-22.658725,0.000000,0.018109,3.247991,-0.000018,-0.000016,-0.000041,64653.920000
14.460000,4.960786,0.761356,-22.644359,0.000000,0.014914,3.243730,-0.000019,-0.000018,-0.000040,64648.320000
14.480000,5.023035,0.445322,-22.586898,0.000000,0.015979,3.239469,-0.000018,-0.000019,-0.000040,64611.680000
14.500000,5.037400,0.105345,-22.596475,0.003196,0.014914,3.235208,-0.000019,-0.000021,-0.000042,64587.840000
14.520000,5.051766,-0.225055,-22.596475,0.002131,0.015979,3.228817,-0.000014,-0.000021,-0.000040,64544.960000
14.540000,5.032612,-0.541090,-22.567745,0.004261,0.014914,3.224555,-0.000014,-0.000023,-0.000040,64526.400000
14.560000,4.984728,-0.842759,-22.553380,0.005326,0.013848,3.219229,-0.000012,-0.000023,-0.000040,64514.400000
14.580000,4.917690,-1.187524,-22.505496,0.008522,0.012783,3.216033,-0.000011,-0.000022,-0.000041,64469.760000
14.600000,4.855441,-1.508347,-22.500707,0.007457,0.012783,3.209642,-0.000010,-0.000024,-0.000041,64432.640000
14.620000,4.754884,-1.814805,-22.524649,0.007457,0.014914,3.205381,-0.000007,-0.000024,-0.000040,64407.680000
14.640000,4.630386,-2.111686,-22.462400,0.009587,0.013848,3.200054,-0.000007,-0.000027,-0.000040,64386.720000
14.660000,4.510676,-2.437297,-22.524649,0.009587,0.012783,3.194728,-0.000004,-0.000025,-0.000041,64370.880000
14.680000,4.357447,-2.700659,-22.481554,0.010653,0.012783,3.189402,-0.000003,-0.000026,-0.000041,64328.800000
14.700000,4.161122,-2.987964,-22.471977,0.011718,0.010653,3.185141,-0.000002,-0.000026,-0.000040,64311.840000
14.720000,3.969586,-3.256114,-22.448035,0.013848,0.010653,3.181945,0.000001,-0.000026,-0.000040,64279.840000
14.740000,3.758897,-3.500323,-22.419304,0.014914,0.010653,3.175553,0.000002,-0.000026,-0.000041,64263.840000
14.760000,3.533842,-3.730166,-22.419304,0.014914,0.010653,3.172357,0.000003,-0.000026,-0.000041,64236.160000
14.780000,3.313575,-3.945644,-22.419304,0.014914,0.010653,3.164901,0.000005,-0.000023,-0.000040,64220.640000
14.800000,3.050213,-4.151546,-22.433670,0.015979,0.006392,3.160640,0.000007,-0.000025,-0.000041,64195.040000
14.820000,2.791639,-4.386177,-22.361844,0.017044,0.008522,3.156379,0.000008,-0.000025,-0.000040,64163.360000
14.840000,2.499547,-4.539406,-22.371420,0.017044,0.004261,3.152117,0.000010,-0.000023,-0.000040,64127.840000
14.860000,2.217031,-4.668693,-22.333113,0.017044,0.005326,3.146791,0.000011,-0.000024,-0.000041,64094.880000
14.880000,1.939303,-4.807557,-22.313959,0.018109,0.002131,3.140400,0.000013,-0.000024,-0.000041,64076.320000
14.900000,1.570596,-4.941632,-22.313959,0.017044,0.001065,3.137204,0.000015,-0.000023,-0.000040,64044.640000
14.920000,1.278504,-5.037400,-22.328325,0.017044,-0.001065,3.130812,0.000015,-0.000022,-0.000041,64025.280000
14.940000,0.986411,-5.133168,-22.304383,0.017044,0.001065,3.127616,0.000017,-0.000019,-0.000041,63992.000000
14.960000,0.641646,-5.176264,-22.266075,0.019175,-0.001065,3.123355,0.000016,-0.000017,-0.000040,63971.360000
14.980000,0.316035,-5.214571,-22.270864,0.019175,-0.001065,3.118029,0.000020,-0.000017,-0.000040,63949.120000
15.000000,0.033519,-5.224148,-22.256499,0.015979,-0.001065,3.113768,0.000020,-0.000019,-0.000040,63925.120000
15.020000,-0.330400,-5.204994,-22.275652,0.017044,-0.005326,3.107376,0.000022,-0.000013,-0.000041,63900.800000
15.040000,-0.627281,-5.209783,-22.222980,0.019175,-0.004261,3.103115,0.000021,-0.000014,-0.000039,63864.000000
15.060000,-0.962469,-5.161899,-22.194249,0.019175,-0.007457,3.099920,0.000023,-0.000013,-0.000040,63845.440000
15.080000,-1.292869,-5.123592,-22.203826,0.019175,-0.009587,3.094593,0.000023,-0.000011,-0.000040,63834.880000
15.100000,-1.613692,-5.037400,-22.194249,0.015979,-0.008522,3.089267,0.000026,-0.000009,-0.000041,63803.360000
15.120000,-1.915361,-4.903325,-22.160731,0.017044,-0.010653,3.083941,0.000023,-0.000008,-0.000039,63764.960000
15.140000,-2.193089,-4.812345,-22.165519,0.015979,-0.010653,3.080745,0.000025,-0.000008,-0.000039,63734.720000
15.160000,-2.504335,-4.692635,-22.165519,0.014914,-0.011718,3.074353,0.000026,-0.000005,-0.000040,63724.160000
15.180000,-2.777274,-4.496311,-22.155942,0.014914,-0.013848,3.070092,0.000026,-0.000004,-0.000040,63690.560000
15.200000,-3.078943,-4.314351,-22.117635,0.013848,-0.011718,3.065831,0.000026,-0.000001,-0.000040,63676.000000
15.220000,-3.361459,-4.132392,-22.141577,0.012783,-0.014914,3.059439,0.000026,0.000000,-0.000041,63646.560000
15.240000,-3.591302,-3.936068,-22.112847,0.011718,-0.013848,3.055178,0.000026,0.000001,-0.000040,63608.480000
15.260000,-3.816357,-3.730166,-22.093693,0.011718,-0.014914,3.051983,0.000025,0.000004,-0.000040,63597.280000
15.280000,-4.065354,-3.490746,-22.069751,0.009587,-0.014914,3.046656,0.000026,0.000005,-0.000041,63570.560000
15.300000,-4.261679,-3.227384,-22.041020,0.008522,-0.018109,3.043460,0.000025,0.000007,-0.000040,63536.000000
15.320000,-4.434061,-2.987964,-22.036232,0.008522,-0.018109,3.034938,0.000024,0.000005,-0.000040,63522.880000
15.340000,-4.654328,-2.686294,-22.007502,0.007457,-0.018109,3.033873,0.000025,0.000010,-0.000040,63500.800000
15.360000,-4.812345,-2.403778,-22.026655,0.007457,-0.018109,3.028547,0.000023,0.000012,-0.000040,63471.520000
15.380000,-4.951209,-2.135628,-22.021867,0.006392,-0.020240,3.023220,0.000023,0.000013,-0.000042,63446.080000
15.400000,-5.080496,-1.838747,-22.007502,0.004261,-0.018109,3.017894,0.000021,0.000013,-0.000040,63414.080000
15.420000,-5.171476,-1.527501,-21.988348,0.003196,-0.018109,3.012568,0.000022,0.000014,-0.000040,63404.480000
15.440000,-5.272032,-1.221043,-21.973983,0.002131,-0.020240,3.009372,0.000020,0.000016,-0.000040,63369.600000
15.460000,-5.353435,-0.881066,-21.973983,0.000000,-0.020240,3.004046,0.000018,0.000018,-0.000040,63355.360000
15.480000,-5.401319,-0.569820,-21.954829,0.000000,-0.020240,2.999785,0.000020,0.000019,-0.000041,63316.960000
15.500000,-5.425261,-0.248997,-21.916522,-0.002131,-0.021305,2.994458,0.000017,0.000019,-0.000040,63292.960000
15.520000,-5.406107,0.067038,-21.911734,-0.002131,-0.020240,2.989132,0.000016,0.000019,-0.000041,63270.720000
15.540000,-5.401319,0.387861,-21.892580,-0.004261,-0.020240,2.985936,0.000014,0.000023,-0.000041,63244.160000
15.560000,-5.396531,0.727837,-21.897368,-0.005326,-0.019175,2.982740,0.000015,0.000022,-0.000040,63222.560000
15.580000,-5.382165,1.043872,-21.897368,-0.006392,-0.021305,2.975284,0.000014,0.000023,-0.000040,63201.760000
15.600000,-5.310339,1.369483,-21.844696,-0.009587,-0.017044,2.972088,0.000011,0.000024,-0.000040,63172.480000
15.620000,-5.200206,1.690306,-21.878215,-0.010653,-0.018109,2.966761,0.000013,0.000026,-0.000039,63142.720000
15.640000,-5.118803,1.991976,-21.830331,-0.009587,-0.018109,2.960370,0.000008,0.000024,-0.000040,63120.320000
15.660000,-4.979939,2.308010,-21.811177,-0.010653,-0.018109,2.958239,0.000007,0.000025,-0.000041,63104.640000
15.680000,-4.841076,2.580949,-21.796812,-0.010653,-0.017044,2.953978,0.000006,0.000024,-0.000040,63085.600000
15.700000,-4.678270,2.853888,-21.825542,-0.010653,-0.018109,2.947587,0.000004,0.000026,-0.000040,63058.400000
15.720000,-4.539406,3.155558,-21.758505,-0.012783,-0.012783,2.941195,0.000004,0.000025,-0.000039,63015.520000
15.740000,-4.333505,3.423708,-21.772870,-0.014914,-0.014914,2.939065,0.000000,0.000028,-0.000040,63007.040000
15.760000,-4.103662,3.653552,-21.772870,-0.014914,-0.013848,2.935869,-0.000001,0.000028,-0.000040,62990.720000
15.780000,-3.897760,3.912126,-21.763293,-0.015979,-0.011718,2.931608,-0.000002,0.000025,-0.000041,62960.000000
15.800000,-3.701436,4.118027,-21.710621,-0.017044,-0.013848,2.926281,-0.000003,0.000027,-0.000041,62937.440000
15.820000,-3.466804,4.338293,-21.710621,-0.015979,-0.012783,2.920955,-0.000004,0.000025,-0.000040,62912.800000
15.840000,-3.169923,4.529830,-21.729774,-0.018109,-0.009587,2.916694,-0.000008,0.000026,-0.000040,62883.680000
15.860000,-2.925714,4.707000,-21.701044,-0.018109,-0.010653,2.911368,-0.000007,0.000023,-0.000041,62857.920000
15.880000,-2.643199,4.879383,-21.686679,-0.018109,-0.007457,2.907107,-0.000008,0.000025,-0.000040,62839.040000
15.900000,-2.346318,5.046977,-21.677102,-0.020240,-0.005326,2.901780,-0.000010,0.000024,-0.000039,62813.120000
15.920000,-2.039860,5.195418,-21.643583,-0.019175,-0.006392,2.897519,-0.000013,0.000024,-0.000040,62790.880000
15.940000,-1.757344,5.291186,-21.619641,-0.019175,-0.003196,2.892193,-0.000014,0.000023,-0.000039,62759.040000
15.960000,-1.455675,5.401319,-21.653160,-0.020240,-0.003196,2.888997,-0.000016,0.000022,-0.000040,62749.280000
15.980000,-1.130063,5.468357,-21.614853,-0.021305,-0.001065,2.883671,-0.000016,0.000022,-0.000040,62717.600000
16.000000,-0.833182,5.530606,-21.634006,-0.021305,-0.001065,2.878345,-0.000016,0.000021,-0.000040,62697.760000
16.020000,-0.507571,5.573701,-21.586122,-0.021305,-0.001065,2.875149,-0.000017,0.000018,-0.000040,62673.760000
16.040000,-0.143652,5.616797,-21.586122,-0.022371,0.000000,2.868757,-0.000020,0.000018,-0.000040,62640.320000
16.060000,0.181959,5.616797,-21.586122,-0.020240,0.002131,2.864496,-0.000021,0.000017,-0.000040,62632.320000
16.080000,0.469264,5.597643,-21.562180,-0.019175,0.001065,2.861300,-0.000021,0.000014,-0.000041,62599.040000
16.100000,0.790087,5.573701,-21.552603,-0.021305,0.004261,2.858104,-0.000023,0.000016,-0.000040,62583.840000
16.120000,1.125275,5.535394,-21.547815,-0.019175,0.005326,2.852778,-0.000023,0.000013,-0.000039,62550.080000
16.140000,1.436521,5.458780,-21.533450,-0.020240,0.006392,2.847452,-0.000024,0.000011,-0.000038,62517.920000
16.160000,1.733402,5.372589,-21.504719,-0.017044,0.007457,2.844256,-0.000024,0.000010,-0.000041,62504.640000
16.180000,2.044648,5.252878,-21.523873,-0.019175,0.008522,2.838930,-0.000026,0.000008,-0.000040,62482.080000
16.200000,2.360683,5.137957,-21.461624,-0.019175,0.009587,2.833603,-0.000026,0.000008,-0.000039,62457.120000
16.220000,2.633622,5.023035,-21.461624,-0.017044,0.009587,2.831473,-0.000026,0.000007,-0.000040,62433.760000
16.240000,2.916138,4.865018,-21.490354,-0.015979,0.013848,2.826147,-0.000026,0.000005,-0.000040,62419.840000
16.260000,3.203442,4.711789,-21.432893,-0.018109,0.010653,2.820820,-0.000027,0.000002,-0.000040,62401.120000
16.280000,3.442862,4.515464,-21.428105,-0.015979,0.013848,2.816559,-0.000026,0.000001,-0.000040,62371.520000
16.300000,3.725378,4.295198,-21.418528,-0.014914,0.013848,2.811233,-0.000027,0.000000,-0.000038,62360.160000
16.320000,3.979163,4.098873,-21.456835,-0.012783,0.015979,2.809102,-0.000027,-0.000001,-0.000040,62329.120000
16.340000,4.199430,3.888183,-21.404163,-0.012783,0.019175,2.803776,-0.000026,-0.000002,-0.000040,62298.880000
16.360000,4.419696,3.620033,-21.437682,-0.013848,0.015979,2.797384,-0.000027,-0.000004,-0.000039,62272.800000
16.380000,4.620809,3.380613,-21.356279,-0.011718,0.020240,2.794189,-0.000027,-0.000005,-0.000040,62258.560000
16.400000,4.826711,3.131616,-21.361067,-0.011718,0.020240,2.789928,-0.000026,-0.000008,-0.000040,62232.480000
16.420000,4.979939,2.839523,-21.365856,-0.008522,0.019175,2.784601,-0.000026,-0.000010,-0.000040,62200.000000
16.440000,5.147534,2.609680,-21.327548,-0.007457,0.019175,2.779275,-0.000024,-0.000011,-0.000040,62184.640000
16.460000,5.286397,2.274492,-21.356279,-0.008522,0.023436,2.773949,-0.000025,-0.000011,-0.000040,62164.320000
16.480000,5.425261,1.987187,-21.337125,-0.007457,0.020240,2.770753,-0.000022,-0.000012,-0.000040,62136.640000
16.500000,5.530606,1.699883,-21.351490,-0.005326,0.021305,2.767557,-0.000022,-0.000016,-0.000040,62120.800000
16.520000,5.612009,1.388637,-21.327548,-0.003196,0.021305,2.761165,-0.000020,-0.000016,-0.000040,62100.000000
16.540000,5.693412,1.096544,-21.294030,-0.001065,0.022371,2.757970,-0.000022,-0.000017,-0.000041,62078.880000
16.560000,5.760449,0.761356,-21.289241,-0.001065,0.022371,2.752643,-0.000021,-0.000017,-0.000039,62044.640000
16.580000,5.808333,0.445322,-21.284453,0.000000,0.021305,2.748382,-0.000019,-0.000017,-0.000040,62023.040000
16.600000,5.803545,0.105345,-21.270088,0.002131,0.023436,2.745186,-0.000019,-0.000020,-0.000038,62008.640000
16.620000,5.827487,-0.220267,-21.265299,0.001065,0.021305,2.738795,-0.000018,-0.000020,-0.000038,61977.440000
16.640000,5.784391,-0.517148,-21.222204,0.005326,0.021305,2.733469,-0.000016,-0.000021,-0.000039,61956.000000
16.660000,5.765238,-0.837971,-21.231780,0.004261,0.022371,2.731338,-0.000015,-0.000020,-0.000040,61934.400000
16.680000,5.746084,-1.163582,-21.193473,0.006392,0.020240,2.727077,-0.000014,-0.000025,-0.000040,61920.640000
16.700000,5.659893,-1.474828,-21.198261,0.008522,0.022371,2.722816,-0.000012,-0.000025,-0.000041,61893.120000
16.720000,5.573701,-1.781286,-21.179108,0.008522,0.021305,2.719620,-0.000011,-0.000025,-0.000040,61869.760000
16.740000,5.477933,-2.087744,-21.203050,0.010653,0.020240,2.713229,-0.000010,-0.000026,-0.000040,61855.040000
16.760000,5.372589,-2.403778,-21.150377,0.012783,0.020240,2.708967,-0.000008,-0.000025,-0.000041,61828.960000
16.780000,5.267244,-2.695871,-21.169531,0.011718,0.019175,2.704706,-0.000008,-0.000026,-0.000040,61817.120000
16.800000,5.094861,-2.987964,-21.155166,0.014914,0.015979,2.700445,-0.000005,-0.000028,-0.000040,61768.960000
16.820000,4.898537,-3.241749,-21.059398,0.014914,0.017044,2.697250,-0.000005,-0.000026,-0.000040,61757.280000
16.840000,4.769250,-3.519476,-21.155166,0.017044,0.018109,2.692988,-0.000002,-0.000028,-0.000039,61742.080000
16.860000,4.577714,-3.758897,-21.112070,0.015979,0.013848,2.687662,-0.000001,-0.000026,-0.000040,61729.440000
16.880000,4.400543,-4.012682,-21.049821,0.017044,0.013848,2.683401,0.000002,-0.000026,-0.000040,61686.720000
16.900000,4.151546,-4.276044,-21.107282,0.018109,0.014914,2.679140,0.000004,-0.000028,-0.000038,61678.560000
16.920000,3.940856,-4.486734,-21.092917,0.018109,0.012783,2.674879,0.000003,-0.000026,-0.000039,61656.000000
16.940000,3.667917,-4.716577,-21.078551,0.019175,0.011718,2.669553,0.000005,-0.000027,-0.000039,61628.320000
16.960000,3.447650,-4.884171,-21.059398,0.019175,0.009587,2.665292,0.000006,-0.000028,-0.000040,61614.560000
16.980000,3.179500,-5.080496,-21.049821,0.020240,0.009587,2.659965,0.000008,-0.000028,-0.000039,61581.440000
17.000000,2.901772,-5.248090,-21.016302,0.023436,0.007457,2.656770,0.000008,-0.000025,-0.000039,61566.560000
17.020000,2.628833,-5.396531,-21.011514,0.021305,0.008522,2.651443,0.000011,-0.000026,-0.000039,61553.120000
17.040000,2.336741,-5.554548,-21.006725,0.022371,0.007457,2.647182,0.000012,-0.000026,-0.000040,61511.840000
17.060000,2.059013,-5.698200,-20.977995,0.023436,0.003196,2.641856,0.000014,-0.000023,-0.000040,61504.480000
17.080000,1.766921,-5.789180,-21.006725,0.023436,0.004261,2.637595,0.000014,-0.000023,-0.000038,61479.680000
17.100000,1.455675,-5.880159,-20.982783,0.024501,0.006392,2.634399,0.000016,-0.000022,-0.000040,61452.000000
17.120000,1.139640,-5.947197,-20.958841,0.022371,0.003196,2.630138,0.000016,-0.000022,-0.000039,61434.880000
17.140000,0.809240,-6.042965,-20.944476,0.026632,0.002131,2.626942,0.000017,-0.000021,-0.000038,61409.920000
17.160000,0.545878,-6.062119,-20.939688,0.025566,-0.001065,2.621616,0.000019,-0.000019,-0.000040,61398.400000
17.180000,0.181959,-6.100426,-20.901380,0.024501,-0.004261,2.619485,0.000020,-0.000020,-0.000040,61373.920000
17.200000,-0.129287,-6.110003,-20.910957,0.025566,-0.003196,2.612028,0.000021,-0.000017,-0.000039,61349.600000
17.220000,-0.459687,-6.105214,-20.906169,0.024501,-0.005326,2.608833,0.000021,-0.000016,-0.000041,61324.320000
17.240000,-0.799663,-6.071695,-20.863073,0.024501,-0.006392,2.605637,0.000023,-0.000017,-0.000039,61314.400000
17.260000,-1.053449,-6.047753,-20.887015,0.024501,-0.008522,2.599245,0.000025,-0.000014,-0.000038,61281.440000
17.280000,-1.398214,-5.980716,-20.853496,0.022371,-0.009587,2.597115,0.000023,-0.000014,-0.000040,61259.840000
17.300000,-1.714248,-5.894524,-20.853496,0.023436,-0.009587,2.590723,0.000025,-0.000013,-0.000040,61239.680000
17.320000,-1.987187,-5.837064,-20.853496,0.023436,-0.009587,2.587527,0.000026,-0.000011,-0.000040,61222.240000
17.340000,-2.308010,-5.722142,-20.839131,0.024501,-0.013848,2.583266,0.000025,-0.000009,-0.000039,61206.080000
17.360000,-2.619257,-5.602432,-20.834343,0.022371,-0.012783,2.577940,0.000026,-0.000008,-0.000040,61186.400000
17.380000,-2.916138,-5.468357,-20.791247,0.021305,-0.015979,2.574744,0.000027,-0.000008,-0.000040,61160.960000
17.400000,-3.160346,-5.319916,-20.805612,0.019175,-0.018109,2.569418,0.000026,-0.000005,-0.000039,61129.920000
17.420000,-3.457227,-5.147534,-20.776882,0.018109,-0.015979,2.565157,0.000028,-0.000005,-0.000040,61123.360000
17.440000,-3.744531,-4.970363,-20.805612,0.020240,-0.019175,2.561961,0.000026,-0.000001,-0.000040,61097.760000
17.460000,-3.979163,-4.807557,-20.743363,0.020240,-0.020240,2.558765,0.000028,-0.000001,-0.000038,61072.000000
17.480000,-4.256891,-4.577714,-20.719421,0.018109,-0.020240,2.554504,0.000027,-0.000001,-0.000040,61040.800000
17.500000,-4.472369,-4.367024,-20.743363,0.017044,-0.021305,2.548113,0.000027,0.000002,-0.000039,61020.160000
17.520000,-4.692635,-4.132392,-20.743363,0.015979,-0.021305,2.543851,0.000026,0.000002,-0.000039,61021.920000
17.540000,-4.903325,-3.912126,-20.748152,0.013848,-0.022371,2.540656,0.000027,0.000004,-0.000039,60995.680000
17.560000,-5.104438,-3.653552,-20.690691,0.012783,-0.024501,2.536395,0.000028,0.000006,-0.000039,60970.560000
17.580000,-5.281609,-3.394978,-20.705056,0.011718,-0.024501,2.531068,0.000026,0.000007,-0.000039,60950.080000
17.600000,-5.458780,-3.145981,-20.661960,0.011718,-0.025566,2.526807,0.000028,0.000008,-0.000038,60940.800000
17.620000,-5.612009,-2.849100,-20.657172,0.009587,-0.025566,2.523611,0.000026,0.000010,-0.000039,60915.840000
17.640000,-5.774814,-2.566584,-20.695479,0.009587,-0.027697,2.519350,0.000025,0.000010,-0.000040,60889.280000
17.660000,-5.889736,-2.293645,-20.652384,0.007457,-0.027697,2.514024,0.000023,0.000011,-0.000039,60864.000000
17.680000,-6.014235,-2.011129,-20.657172,0.007457,-0.026632,2.510828,0.000025,0.000013,-0.000039,60849.440000
17.700000,-6.133945,-1.690306,-20.628442,0.004261,-0.026632,2.504437,0.000024,0.000016,-0.000040,60833.280000
17.720000,-6.215348,-1.388637,-20.614076,0.004261,-0.028762,2.502306,0.000023,0.000016,-0.000039,60811.840000
17.740000,-6.320692,-1.072602,-20.628442,0.002131,-0.027697,2.500176,0.000021,0.000017,-0.000040,60780.160000
17.760000,-6.359000,-0.737414,-20.609288,0.001065,-0.027697,2.492719,0.000023,0.000018,-0.000040,60765.440000
17.780000,-6.406884,-0.430956,-20.575769,-0.001065,-0.026632,2.490588,0.000021,0.000020,-0.000038,60756.960000
17.800000,-6.402095,-0.129287,-20.575769,-0.001065,-0.027697,2.486327,0.000020,0.000021,-0.000039,60735.200000
17.820000,-6.406884,0.196325,-20.561404,-0.004261,-0.027697,2.482066,0.000020,0.000021,-0.000040,60702.240000
17.840000,-6.397307,0.493206,-20.542250,-0.004261,-0.025566,2.476740,0.000017,0.000022,-0.000040,60692.640000
17.860000,-6.378153,0.804452,-20.575769,-0.005326,-0.028762,2.471413,0.000016,0.000023,-0.000039,60669.920000
17.880000,-6.335058,1.120486,-20.547039,-0.006392,-0.026632,2.468218,0.000016,0.000021,-0.000038,60649.600000
17.900000,-6.291962,1.441309,-20.542250,-0.009587,-0.026632,2.463957,0.000013,0.000025,-0.000039,60641.920000
17.920000,-6.205771,1.762132,-20.547039,-0.008522,-0.026632,2.458630,0.000013,0.000024,-0.000040,60610.880000
17.940000,-6.133945,2.063802,-20.547039,-0.011718,-0.025566,2.455435,0.000011,0.000027,-0.000039,60590.080000
17.960000,-6.038177,2.370260,-20.489578,-0.011718,-0.024501,2.450108,0.000010,0.000026,-0.000038,60573.600000
17.980000,-5.937620,2.671929,-20.480001,-0.013848,-0.025566,2.446912,0.000009,0.000028,-0.000040,60545.920000
18.000000,-5.774814,2.959233,-20.465636,-0.013848,-0.027697,2.444782,0.000007,0.000026,-0.000039,60532.800000
18.020000,-5.640739,3.241749,-20.465636,-0.014914,-0.023436,2.438390,0.000006,0.000029,-0.000040,60512.000000
18.040000,-5.497087,3.505111,-20.475213,-0.014914,-0.021305,2.433064,0.000006,0.000029,-0.000039,60499.040000
18.060000,-5.319916,3.792415,-20.446482,-0.018109,-0.021305,2.430933,0.000002,0.000028,-0.000038,60487.200000
18.080000,-5.104438,4.031836,-20.412963,-0.019175,-0.019175,2.425607,0.000004,0.000027,-0.000039,60458.240000
18.100000,-4.941632,4.309563,-20.432117,-0.021305,-0.019175,2.422411,-0.000001,0.000029,-0.000038,60432.000000
18.120000,-4.754884,4.544195,-20.389021,-0.022371,-0.021305,2.417085,-0.000001,0.000027,-0.000039,60409.280000
18.140000,-4.515464,4.759673,-20.398598,-0.022371,-0.018109,2.414954,0.000000,0.000030,-0.000039,60395.680000
18.160000,-4.276044,4.989516,-20.412963,-0.023436,-0.017044,2.409628,-0.000001,0.000029,-0.000038,60382.080000
18.180000,-4.046201,5.200206,-20.374656,-0.022371,-0.018109,2.406432,-0.000003,0.000027,-0.000040,60357.280000
18.200000,-3.830723,5.401319,-20.350714,-0.024501,-0.014914,2.401106,-0.000004,0.000027,-0.000038,60339.520000
18.220000,-3.543418,5.578490,-20.350714,-0.023436,-0.013848,2.396845,-0.000006,0.000027,-0.000038,60316.320000
18.240000,-3.260903,5.755661,-20.321984,-0.024501,-0.012783,2.393649,-0.000009,0.000026,-0.000038,60293.440000
18.260000,-2.987964,5.908890,-20.321984,-0.027697,-0.010653,2.388323,-0.000011,0.000027,-0.000040,60274.720000
18.280000,-2.710236,6.052542,-20.302830,-0.027697,-0.009587,2.386192,-0.000010,0.000027,-0.000039,60262.720000
18.300000,-2.437297,6.186617,-20.269311,-0.027697,-0.009587,2.380866,-0.000010,0.000024,-0.000040,60250.240000
18.320000,-2.116474,6.296750,-20.298042,-0.028762,-0.008522,2.376605,-0.000013,0.000025,-0.000039,60208.000000
18.340000,-1.838747,6.402095,-20.302830,-0.028762,-0.005326,2.371279,-0.000015,0.000024,-0.000039,60203.200000
18.360000,-1.527501,6.497863,-20.307618,-0.029827,-0.005326,2.368083,-0.000014,0.000023,-0.000038,60190.080000
18.380000,-1.206678,6.569689,-20.326772,-0.028762,-0.004261,2.364887,-0.000016,0.000025,-0.000039,60171.200000
18.400000,-0.933739,6.646304,-20.254946,-0.029827,-0.002131,2.359561,-0.000017,0.000023,-0.000038,60148.320000
18.420000,-0.603339,6.675034,-20.235792,-0.028762,0.000000,2.356365,-0.000019,0.000022,-0.000039,60126.720000
18.440000,-0.263362,6.698976,-20.211850,-0.028762,0.000000,2.353169,-0.000019,0.000021,-0.000039,60104.800000
18.460000,0.038307,6.727707,-20.226216,-0.028762,0.002131,2.346778,-0.000021,0.000020,-0.000040,60084.000000
18.480000,0.339977,6.713341,-20.226216,-0.029827,0.003196,2.343582,-0.000022,0.000019,-0.000039,60058.720000
18.500000,0.651223,6.698976,-20.183120,-0.029827,0.004261,2.339321,-0.000023,0.000018,-0.000038,60051.040000
18.520000,0.976834,6.670246,-20.178332,-0.028762,0.007457,2.336125,-0.000022,0.000017,-0.000039,60029.760000
18.540000,1.292869,6.641515,-20.173543,-0.028762,0.007457,2.328668,-0.000023,0.000016,-0.000038,60012.640000
18.560000,1.618480,6.579266,-20.168755,-0.028762,0.010653,2.327603,-0.000024,0.000014,-0.000038,60002.080000
18.580000,1.920150,6.493075,-20.168755,-0.027697,0.006392,2.321211,-0.000024,0.000014,-0.000038,59980.960000
18.600000,2.236184,6.411672,-20.125659,-0.028762,0.010653,2.318015,-0.000026,0.000012,-0.000040,59962.560000
18.620000,2.509123,6.291962,-20.130448,-0.027697,0.013848,2.313754,-0.000026,0.000012,-0.000038,59941.280000
18.640000,2.810793,6.191405,-20.140024,-0.026632,0.013848,2.309493,-0.000027,0.000010,-0.000039,59933.760000
18.660000,3.107674,6.071695,-20.140024,-0.024501,0.014914,2.305232,-0.000026,0.000009,-0.000039,59914.560000
18.680000,3.404555,5.942409,-20.087352,-0.024501,0.013848,2.302036,-0.000026,0.000008,-0.000040,59896.480000
18.700000,3.706224,5.803545,-20.111294,-0.023436,0.017044,2.298841,-0.000028,0.000006,-0.000037,59887.680000
18.720000,3.945644,5.597643,-20.072987,-0.023436,0.015979,2.295645,-0.000028,0.000005,-0.000038,59880.000000
18.740000,4.218583,5.444415,-20.053833,-0.021305,0.018109,2.290319,-0.000028,0.000004,-0.000038,59853.760000
18.760000,4.438850,5.252878,-20.044256,-0.020240,0.018109,2.286057,-0.000029,0.000004,-0.000038,59827.200000
18.780000,4.707000,5.032612,-20.063410,-0.020240,0.022371,2.283927,-0.000029,0.000001,-0.000038,59822.240000
18.800000,4.932055,4.826711,-20.010737,-0.020240,0.021305,2.278601,-0.000030,0.000002,-0.000038,59808.640000
18.820000,5.147534,4.606444,-20.034679,-0.018109,0.022371,2.273274,-0.000028,-0.000002,-0.000040,59779.520000
18.840000,5.372589,4.376601,-20.015526,-0.019175,0.024501,2.271144,-0.000028,-0.000003,-0.000038,59778.880000
18.860000,5.602432,4.103662,-20.015526,-0.015979,0.023436,2.265817,-0.000028,-0.000005,-0.000037,59752.160000
18.880000,5.770026,3.854665,-19.986795,-0.014914,0.023436,2.261556,-0.000027,-0.000005,-0.000038,59739.680000
18.900000,5.923255,3.624821,-20.001161,-0.014914,0.025566,2.257295,-0.000027,-0.000007,-0.000039,59728.640000
18.920000,6.100426,3.356671,-19.943700,-0.013848,0.025566,2.251969,-0.000025,-0.000010,-0.000038,59719.680000
18.940000,6.258443,3.088520,-19.972430,-0.011718,0.026632,2.249838,-0.000027,-0.000008,-0.000040,59696.160000
18.960000,6.406884,2.772486,-19.967642,-0.010653,0.025566,2.246643,-0.000027,-0.000009,-0.000038,59676.000000
18.980000,6.526594,2.485181,-19.929335,-0.010653,0.029827,2.242382,-0.000026,-0.000011,-0.000039,59667.520000
19.000000,6.651092,2.217031,-19.972430,-0.008522,0.027697,2.239186,-0.000026,-0.000014,-0.000040,59643.680000
19.020000,6.742072,1.900996,-19.905393,-0.008522,0.030893,2.233860,-0.000025,-0.000014,-0.000038,59637.440000
19.040000,6.837840,1.589750,-19.919758,-0.005326,0.027697,2.229598,-0.000026,-0.000014,-0.000038,59622.400000
19.060000,6.900089,1.283292,-19.914969,-0.004261,0.030893,2.226403,-0.000024,-0.000016,-0.000038,59598.240000
19.080000,6.952762,0.972046,-19.900604,-0.002131,0.030893,2.221076,-0.000023,-0.000016,-0.000038,59588.640000
19.100000,7.015011,0.670376,-19.876662,-0.002131,0.029827,2.217881,-0.000022,-0.000019,-0.000040,59578.720000
19.120000,7.043741,0.368707,-19.847932,0.001065,0.031958,2.214685,-0.000022,-0.000019,-0.000038,59552.640000
19.140000,7.067683,0.047884,-19.852720,0.001065,0.028762,2.210424,-0.000020,-0.000021,-0.000038,59529.760000
19.160000,7.077260,-0.272939,-19.876662,0.003196,0.031958,2.206163,-0.000021,-0.000020,-0.000038,59531.520000
19.180000,7.077260,-0.603339,-19.843143,0.003196,0.030893,2.202967,-0.000020,-0.000021,-0.000037,59514.080000
19.200000,7.067683,-0.876278,-19.833567,0.005326,0.030893,2.197641,-0.000018,-0.000022,-0.000038,59484.000000
19.220000,7.058106,-1.211466,-19.800048,0.005326,0.030893,2.191249,-0.000019,-0.000024,-0.000038,59475.520000
19.240000,6.981492,-1.532289,-19.814413,0.009587,0.031958,2.188053,-0.000016,-0.000023,-0.000038,59472.800000
19.260000,6.952762,-1.819593,-19.780894,0.008522,0.029827,2.185923,-0.000014,-0.000025,-0.000040,59455.200000
19.280000,6.818686,-2.102109,-19.814413,0.010653,0.029827,2.181662,-0.000014,-0.000025,-0.000038,59428.320000
19.300000,6.761225,-2.432509,-19.785683,0.013848,0.027697,2.178466,-0.000013,-0.000027,-0.000038,59413.920000
19.320000,6.660669,-2.738967,-19.742587,0.014914,0.029827,2.174205,-0.000013,-0.000027,-0.000038,59408.960000
19.340000,6.531382,-3.007117,-19.756952,0.017044,0.027697,2.169944,-0.000010,-0.000027,-0.000037,59386.880000
19.360000,6.411672,-3.303998,-19.737798,0.015979,0.026632,2.164617,-0.000008,-0.000029,-0.000038,59373.280000
19.380000,6.320692,-3.576937,-19.752164,0.018109,0.028762,2.160356,-0.000010,-0.000026,-0.000037,59356.160000
19.400000,6.157887,-3.878607,-19.713856,0.020240,0.028762,2.159291,-0.000007,-0.000028,-0.000037,59343.840000
19.420000,5.971139,-4.156334,-19.713856,0.019175,0.027697,2.152899,-0.000007,-0.000031,-0.000038,59334.560000
19.440000,5.770026,-4.386177,-19.656396,0.022371,0.026632,2.148638,-0.000005,-0.000029,-0.000038,59317.280000
19.460000,5.631162,-4.630386,-19.665972,0.022371,0.024501,2.146508,-0.000004,-0.000031,-0.000037,59300.320000
19.480000,5.396531,-4.884171,-19.670761,0.022371,0.024501,2.143312,-0.000003,-0.000031,-0.000038,59276.320000
19.500000,5.224148,-5.133168,-19.651607,0.023436,0.023436,2.140116,-0.000001,-0.000028,-0.000037,59262.560000
19.520000,4.970363,-5.382165,-19.642030,0.026632,0.020240,2.134790,0.000001,-0.000031,-0.000038,59251.360000
19.540000,4.759673,-5.588067,-19.661184,0.025566,0.022371,2.130529,0.000002,-0.000029,-0.000038,59245.440000
19.560000,4.505888,-5.793968,-19.608512,0.027697,0.018109,2.127333,0.000003,-0.000031,-0.000038,59231.360000
19.580000,4.266467,-5.985504,-19.632454,0.027697,0.017044,2.120941,0.000004,-0.000028,-0.000037,59202.400000
19.600000,4.031836,-6.177040,-19.618088,0.028762,0.015979,2.117746,0.000005,-0.000028,-0.000038,59195.200000
19.620000,3.768473,-6.349423,-19.570204,0.028762,0.013848,2.114550,0.000007,-0.000030,-0.000038,59186.720000
19.640000,3.500323,-6.512229,-19.560628,0.031958,0.014914,2.111354,0.000008,-0.000029,-0.000037,59155.360000
19.660000,3.251326,-6.655881,-19.594146,0.031958,0.011718,2.107093,0.000008,-0.000028,-0.000038,59144.800000
19.680000,2.954445,-6.794744,-19.546262,0.030893,0.010653,2.103897,0.000011,-0.000028,-0.000037,59134.880000
19.700000,2.657564,-6.928820,-19.560628,0.031958,0.011718,2.098571,0.000011,-0.000028,-0.000038,59126.880000
19.720000,2.384625,-7.034164,-19.551051,0.034088,0.007457,2.096440,0.000011,-0.000026,-0.000038,59096.160000
19.740000,2.092532,-7.153875,-19.507955,0.035154,0.007457,2.093245,0.000014,-0.000026,-0.000037,59103.520000
19.760000,1.814805,-7.235277,-19.527109,0.033023,0.005326,2.086853,0.000015,-0.000027,-0.000038,59078.400000
19.780000,1.489193,-7.340622,-19.531897,0.034088,0.004261,2.083657,0.000016,-0.000026,-0.000037,59078.400000
19.800000,1.173159,-7.407660,-19.493590,0.035154,0.003196,2.078331,0.000016,-0.000026,-0.000038,59051.360000
19.820000,0.876278,-7.450756,-19.503167,0.036219,0.001065,2.074070,0.000017,-0.000024,-0.000038,59041.440000
19.840000,0.603339,-7.493851,-19.474436,0.035154,0.000000,2.071939,0.000018,-0.000024,-0.000038,59028.640000
19.860000,0.244209,-7.532158,-19.474436,0.036219,-0.001065,2.066613,0.000020,-0.000022,-0.000039,58997.760000
19.880000,-0.028730,-7.541735,-19.464859,0.036219,-0.001065,2.064482,0.000020,-0.000022,-0.000038,58998.880000
19.900000,-0.349553,-7.556100,-19.464859,0.036219,-0.005326,2.060221,0.000021,-0.000022,-0.000037,58973.440000
19.920000,-0.675165,-7.541735,-19.440917,0.036219,-0.006392,2.055960,0.000021,-0.000020,-0.000038,58973.280000
19.940000,-0.991199,-7.522582,-19.412187,0.038350,-0.008522,2.051699,0.000023,-0.000019,-0.000038,58952.640000
19.960000,-1.292869,-7.508216,-19.388245,0.036219,-0.007457,2.047438,0.000024,-0.000019,-0.000036,58939.040000
19.980000,-1.594538,-7.460332,-19.431341,0.035154,-0.009587,2.044242,0.000024,-0.000019,-0.000037,58933.760000
20.000000,-1.886631,-7.407660,-19.321207,0.034088,-0.011718,2.042112,0.000025,-0.000016,-0.000037,58917.440000
20.020000,-2.231396,-7.307103,-19.388245,0.035154,-0.012783,2.035720,0.000025,-0.000014,-0.000038,58895.680000
20.040000,-2.499547,-7.259219,-19.402610,0.035154,-0.013848,2.033590,0.000027,-0.000013,-0.000037,58882.720000
20.060000,-2.810793,-7.153875,-19.378668,0.033023,-0.017044,2.028263,0.000027,-0.000014,-0.000035,58875.520000
20.080000,-3.107674,-7.043741,-19.349938,0.033023,-0.018109,2.025068,0.000027,-0.000011,-0.000038,58857.920000
20.100000,-3.418920,-6.924031,-19.340361,0.030893,-0.019175,2.019741,0.000026,-0.000011,-0.000037,58844.000000
20.120000,-3.677494,-6.809110,-19.325996,0.031958,-0.020240,2.018676,0.000028,-0.000010,-0.000038,58828.480000
20.140000,-3.979163,-6.665457,-19.325996,0.033023,-0.019175,2.013350,0.000031,-0.000008,-0.000038,58810.400000
20.160000,-4.213795,-6.497863,-19.325996,0.031958,-0.023436,2.010154,0.000029,-0.000008,-0.000037,58787.680000
20.180000,-4.491522,-6.339846,-19.292477,0.030893,-0.022371,2.005893,0.000029,-0.000008,-0.000037,58786.880000
20.200000,-4.740519,-6.172252,-19.235016,0.029827,-0.025566,2.002697,0.000029,-0.000005,-0.000037,58766.560000
20.220000,-4.989516,-5.995081,-19.254170,0.028762,-0.024501,1.998436,0.000029,-0.000004,-0.000037,58760.320000
20.240000,-5.248090,-5.770026,-19.282900,0.027697,-0.027697,1.994175,0.000028,-0.000001,-0.000038,58748.960000
20.260000,-5.482722,-5.573701,-19.249381,0.027697,-0.029827,1.989914,0.000029,-0.000002,-0.000037,58720.160000
20.280000,-5.731719,-5.363012,-19.230228,0.025566,-0.030893,1.987783,0.000029,0.000001,-0.000038,58720.640000
20.300000,-5.928043,-5.133168,-19.206286,0.024501,-0.029827,1.981392,0.000029,-0.000001,-0.000038,58698.720000
20.320000,-6.153098,-4.898537,-19.206286,0.023436,-0.030893,1.978196,0.000029,0.000002,-0.000038,58681.280000
20.340000,-6.335058,-4.687847,-19.187132,0.022371,-0.035154,1.975000,0.000030,0.000002,-0.000036,58687.520000
20.360000,-6.540959,-4.448427,-19.153613,0.022371,-0.034088,1.972870,0.000031,0.000004,-0.000036,58666.720000
20.380000,-6.708553,-4.175488,-19.177555,0.021305,-0.033023,1.967543,0.000031,0.000006,-0.000038,58648.640000
20.400000,-6.890512,-3.921702,-19.148825,0.017044,-0.033023,1.964348,0.000029,0.000005,-0.000038,58636.000000
20.420000,-7.072472,-3.643975,-19.153613,0.015979,-0.036219,1.959021,0.000029,0.000008,-0.000038,58626.720000
20.440000,-7.196970,-3.414132,-19.163190,0.018109,-0.037284,1.956891,0.000028,0.000008,-0.000037,58611.680000
20.460000,-7.369353,-3.093309,-19.076999,0.015979,-0.037284,1.953695,0.000027,0.000010,-0.000037,58603.680000
20.480000,-7.460332,-2.829946,-19.115306,0.012783,-0.041545,1.949434,0.000029,0.000009,-0.000037,58586.880000
20.500000,-7.575254,-2.561796,-19.134460,0.011718,-0.039415,1.944108,0.000028,0.000013,-0.000038,58575.520000
20.520000,-7.666234,-2.255338,-19.067422,0.008522,-0.039415,1.940912,0.000026,0.000014,-0.000038,58556.160000
20.540000,-7.776367,-1.968034,-19.105729,0.008522,-0.040480,1.937716,0.000028,0.000014,-0.000037,58539.040000
20.560000,-7.857770,-1.656788,-19.062634,0.006392,-0.039415,1.932390,0.000028,0.000014,-0.000037,58539.040000
20.580000,-7.953538,-1.364695,-19.067422,0.005326,-0.040480,1.931324,0.000027,0.000016,-0.000038,58518.880000
20.600000,-7.996634,-1.043872,-19.053057,0.003196,-0.040480,1.927063,0.000026,0.000017,-0.000037,58509.440000
20.620000,-8.044518,-0.737414,-19.033903,0.003196,-0.042611,1.922802,0.000023,0.000018,-0.000038,58505.440000
20.640000,-8.078036,-0.450110,-19.043480,0.002131,-0.044741,1.918541,0.000024,0.000017,-0.000038,58476.160000
20.660000,-8.111555,-0.134075,-18.990808,-0.001065,-0.043676,1.914280,0.000023,0.000017,-0.000037,58468.800000
20.680000,-8.130709,0.191536,-19.033903,-0.003196,-0.041545,1.910019,0.000023,0.000021,-0.000037,58453.920000
20.700000,-8.116344,0.512359,-18.995596,-0.004261,-0.044741,1.906823,0.000021,0.000024,-0.000037,58454.560000
20.720000,-8.121132,0.804452,-18.976442,-0.006392,-0.040480,1.903628,0.000021,0.000022,-0.000037,58436.800000
20.740000,-8.111555,1.130063,-18.947712,-0.006392,-0.042611,1.899366,0.000020,0.000023,-0.000037,58415.680000
20.760000,-8.073248,1.417367,-18.933347,-0.007457,-0.042611,1.897236,0.000021,0.000025,-0.000038,58415.680000
20.780000,-8.025364,1.723825,-18.971654,-0.010653,-0.041545,1.892975,0.000017,0.000023,-0.000036,58401.440000
20.800000,-7.972692,2.039860,-18.957289,-0.012783,-0.043676,1.889779,0.000018,0.000027,-0.000037,58373.120000
20.820000,-7.886500,2.341529,-18.928558,-0.014914,-0.041545,1.884453,0.000016,0.000026,-0.000037,58356.480000
20.840000,-7.809886,2.647987,-18.938135,-0.012783,-0.041545,1.880192,0.000016,0.000027,-0.000038,58351.360000
20.860000,-7.694964,2.935291,-18.914193,-0.017044,-0.040480,1.878061,0.000014,0.000028,-0.000037,58345.920000
20.880000,-7.623138,3.236961,-18.895040,-0.017044,-0.039415,1.872735,0.000015,0.000027,-0.000037,58335.040000
20.900000,-7.493851,3.533842,-18.861521,-0.021305,-0.040480,1.870604,0.000013,0.000030,-0.000038,58318.080000
20.920000,-7.398083,3.811569,-18.842367,-0.021305,-0.038350,1.867409,0.000011,0.000029,-0.000037,58299.840000
20.940000,-7.244854,4.084508,-18.856732,-0.023436,-0.038350,1.862082,0.000010,0.000029,-0.000037,58290.720000
20.960000,-7.091625,4.367024,-18.813637,-0.023436,-0.037284,1.858886,0.000011,0.000030,-0.000037,58278.400000
20.980000,-6.938396,4.630386,-18.818425,-0.025566,-0.037284,1.855691,0.000009,0.000031,-0.000037,58267.040000
21.000000,-6.785168,4.908113,-18.823213,-0.028762,-0.036219,1.852495,0.000005,0.000030,-0.000035,58255.520000
21.020000,-6.622362,5.161899,-18.804060,-0.029827,-0.033023,1.848234,0.000007,0.000030,-0.000035,58225.600000
21.040000,-6.430826,5.401319,-18.789695,-0.030893,-0.031958,1.842907,0.000006,0.000033,-0.000037,58208.000000
21.060000,-6.239290,5.664681,-18.794483,-0.033023,-0.033023,1.839712,0.000004,0.000031,-0.000038,58222.400000
21.080000,-6.023811,5.884948,-18.756176,-0.031958,-0.033023,1.834385,0.000004,0.000031,-0.000036,58203.520000
21.100000,-5.813122,6.114791,-18.756176,-0.035154,-0.029827,1.833320,0.000002,0.000031,-0.000035,58190.080000
21.120000,-5.616797,6.344634,-18.713080,-0.034088,-0.029827,1.827994,0.000000,0.000030,-0.000037,58185.440000
21.140000,-5.401319,6.564901,-18.713080,-0.037284,-0.029827,1.824798,0.000001,0.000031,-0.000036,58176.960000
21.160000,-5.128380,6.756437,-18.727445,-0.036219,-0.026632,1.822667,-0.000002,0.000030,-0.000036,58151.040000
21.180000,-4.888960,6.952762,-18.703503,-0.039415,-0.025566,1.818406,-0.000003,0.000032,-0.000037,58146.720000
21.200000,-4.635174,7.134721,-18.708292,-0.040480,-0.026632,1.815211,-0.000003,0.000031,-0.000037,58136.160000
21.220000,-4.386177,7.316680,-18.631677,-0.040480,-0.021305,1.810950,-0.000005,0.000032,-0.000036,58120.960000
21.240000,-4.151546,7.484274,-18.660408,-0.039415,-0.023436,1.808819,-0.000008,0.000031,-0.000037,58105.120000
21.260000,-3.878607,7.656657,-18.622101,-0.041545,-0.022371,1.804558,-0.000006,0.000032,-0.000035,58092.160000
21.280000,-3.605668,7.805097,-18.655619,-0.043676,-0.019175,1.800297,-0.000008,0.000029,-0.000035,58084.800000
21.300000,-3.337517,7.924807,-18.607735,-0.043676,-0.018109,1.794971,-0.000009,0.000029,-0.000036,58069.440000
21.320000,-3.035848,8.058883,-18.665196,-0.043676,-0.015979,1.792840,-0.000010,0.000029,-0.000036,58066.240000
21.340000,-2.772486,8.178593,-18.607735,-0.045806,-0.014914,1.788579,-0.000013,0.000029,-0.000037,58053.280000
21.360000,-2.499547,8.288726,-18.588582,-0.046872,-0.014914,1.786448,-0.000011,0.000028,-0.000036,58042.560000
21.380000,-2.154781,8.370129,-18.555063,-0.045806,-0.011718,1.780057,-0.000014,0.000029,-0.000036,58017.280000
21.400000,-1.900996,8.470685,-18.574216,-0.046872,-0.010653,1.777926,-0.000015,0.000028,-0.000037,58025.280000
21.420000,-1.575385,8.547300,-18.550274,-0.045806,-0.007457,1.775796,-0.000015,0.000028,-0.000036,57990.560000
21.440000,-1.259350,8.623914,-18.540698,-0.047937,-0.006392,1.769404,-0.000017,0.000026,-0.000035,57988.800000
21.460000,-0.952892,8.686164,-18.535909,-0.047937,-0.003196,1.767274,-0.000019,0.000026,-0.000036,57970.240000
21.480000,-0.670376,8.738836,-18.507179,-0.049002,-0.002131,1.765143,-0.000018,0.000026,-0.000037,57969.440000
21.500000,-0.363919,8.738836,-18.492814,-0.047937,-0.003196,1.760882,-0.000018,0.000026,-0.000035,57948.320000
21.520000,-0.062249,8.772355,-18.492814,-0.049002,-0.002131,1.756621,-0.000021,0.000024,-0.000037,57933.760000
21.540000,0.272939,8.801085,-18.478448,-0.047937,0.002131,1.751295,-0.000020,0.000024,-0.000037,57930.880000
21.560000,0.565032,8.786720,-18.425776,-0.047937,0.001065,1.749164,-0.000022,0.000023,-0.000035,57921.440000
21.580000,0.885855,8.777143,-18.440141,-0.050067,0.005326,1.743838,-0.000022,0.000023,-0.000037,57909.120000
21.600000,1.182736,8.767566,-18.425776,-0.049002,0.006392,1.741707,-0.000023,0.000021,-0.000035,57914.880000
21.620000,1.489193,8.743624,-18.411411,-0.050067,0.009587,1.737446,-0.000024,0.000020,-0.000036,57883.200000
21.640000,1.800440,8.690952,-18.406622,-0.050067,0.011718,1.735316,-0.000025,0.000021,-0.000035,57886.240000
21.660000,2.106897,8.623914,-18.397046,-0.047937,0.012783,1.731055,-0.000026,0.000019,-0.000035,57862.560000
21.680000,2.389413,8.580819,-18.368315,-0.047937,0.013848,1.726794,-0.000027,0.000019,-0.000035,57849.280000
21.700000,2.743755,8.518570,-18.382680,-0.046872,0.014914,1.722533,-0.000027,0.000017,-0.000036,57831.360000
21.720000,3.021482,8.408436,-18.325220,-0.045806,0.018109,1.719337,-0.000026,0.000017,-0.000036,57826.720000
21.740000,3.313575,8.331822,-18.334796,-0.045806,0.015979,1.717206,-0.000028,0.000013,-0.000035,57822.240000
21.760000,3.591302,8.221689,-18.325220,-0.046872,0.020240,1.711880,-0.000030,0.000016,-0.000037,57806.560000
21.780000,3.888183,8.106767,-18.286912,-0.045806,0.022371,1.709749,-0.000029,0.000012,-0.000035,57792.480000
21.800000,4.180276,8.001422,-18.248605,-0.045806,0.024501,1.704423,-0.000028,0.000012,-0.000036,57768.960000
21.820000,4.481946,7.857770,-18.286912,-0.044741,0.025566,1.701227,-0.000030,0.000013,-0.000035,57773.760000
21.840000,4.730942,7.728483,-18.248605,-0.043676,0.029827,1.699097,-0.000030,0.000011,-0.000035,57766.720000
21.860000,4.989516,7.575254,-18.243817,-0.043676,0.028762,1.696966,-0.000032,0.000008,-0.000035,57753.280000
21.880000,5.243302,7.422025,-18.258182,-0.041545,0.029827,1.690575,-0.000032,0.000010,-0.000037,57746.080000
21.900000,5.530606,7.235277,-18.234240,-0.040480,0.030893,1.688444,-0.000032,0.000006,-0.000034,57737.440000
21.920000,5.770026,7.072472,-18.205509,-0.040480,0.033023,1.685248,-0.000030,0.000007,-0.000035,57704.640000
21.940000,6.047753,6.900089,-18.200721,-0.039415,0.036219,1.680987,-0.000032,0.000004,-0.000036,57706.720000
